File: aloh3_XRD_list.txt
# [0.0, 772.0, 1544.0, 2316.0, 3090.0, 3861.0, 4634.0, 5406.0, 6179.0, 6952.0, 7724.0, 8496.0, 9267.0, 10040.0, 10814.0, 11585.0, 12357.0, 13129.0, 13902.0, 14675.0, 15447.0, 16219.0, 16992.0, 17765.0, 18538.0, 19310.0, 20082.0, 20854.0, 21626.0, 22400.0]
0.5 3.71351 4.16001 4.30825 4.4248 4.34726 4.54505 4.50774 4.55161 4.69095 4.57248 4.59604 4.64912 4.73381 4.66734 4.91802 4.84227 4.92021 4.96059 5.03448 5.1417 5.15016 5.03845 5.16067 5.22401 5.34609 5.27221 5.2976 5.59338 5.37087 5.48092
0.8 2.06443 2.33821 2.57446 2.59874 2.60666 2.81262 2.68169 2.80373 2.67346 2.74707 2.73422 2.75484 2.83961 2.90823 2.81899 2.81713 2.99681 2.93522 2.93609 3.04795 3.04494 3.0248 3.03212 3.13971 3.19734 3.1905 3.27869 3.33201 3.20701 3.3454
1.1 1.95658 2.23512 2.24889 2.28586 2.37418 2.3457 2.42104 2.45201 2.36271 2.27277 2.37729 2.363 2.46168 2.31886 2.40319 2.45116 2.46389 2.46396 2.56 2.52127 2.43151 2.4921 2.51975 2.52896 2.62528 2.55279 2.66975 2.68646 2.60513 2.76538
1.4 2.05269 2.28282 2.28567 2.41009 2.36028 2.43575 2.3627 2.37808 2.40591 2.38053 2.40842 2.36574 2.36574 2.3634 2.35134 2.35756 2.57989 2.48198 2.43591 2.46941 2.3853 2.49349 2.41434 2.57929 2.49325 2.51934 2.50612 2.52943 2.42313 2.49593
1.7 2.32417 2.41467 2.48413 2.51267 2.66449 2.59687 2.6642 2.56123 2.50478 2.57779 2.59083 2.48576 2.47104 2.59064 2.50476 2.47203 2.67478 2.62281 2.5607 2.58837 2.47705 2.55211 2.61588 2.58943 2.69626 2.52645 2.74985 2.6043 2.55486 2.56331
2 2.9757 2.86851 2.90647 2.89461 2.93677 3.01097 3.04833 2.8897 3.02125 2.77532 2.76073 2.87109 2.92462 2.88172 2.90273 3.09793 3.02932 2.96143 2.98102 2.90014 2.90441 3.00272 2.89274 2.93362 2.96656 3.04322 2.95405 3.01656 2.97218 2.94591
2.3 3.81192 3.51968 3.6997 3.61755 3.70732 3.66106 3.60702 3.73343 3.67634 3.57416 3.63748 3.53415 3.52851 3.61989 3.4137 3.68155 3.60684 3.66304 3.7364 3.79449 3.61649 3.57767 3.60752 3.58332 3.59762 3.60485 3.65361 3.70736 3.67056 3.57657
2.6 5.27147 5.00993 4.97466 5.03601 5.14412 5.30102 5.11085 5.06933 5.15566 4.7902 5.1098 5.01184 5.02084 5.01386 4.98467 5.18252 5.0155 5.13706 4.90811 5.20956 5.00316 5.10337 4.91534 5.02341 5.05123 5.04896 5.26431 5.19827 5.13168 5.15681
2.9 7.39223 6.79226 6.81506 6.98827 6.99831 7.16623 7.18969 6.90782 6.85509 7.12338 6.72945 6.70091 6.91555 6.90255 6.72283 6.92929 7.08889 7.00533 7.07578 7.02313 6.77353 7.07745 6.72509 6.88127 7.08638 7.03481 6.91013 7.17935 6.90741 7.01497
3.2 8.57929 8.10174 7.97138 8.13531 8.16237 8.36952 8.28358 8.32161 8.22887 8.26249 8.12411 7.81852 7.99123 7.86373 8.11791 8.09926 8.12616 8.26527 8.04791 8.26053 7.96604 8.13065 7.94439 8.02949 8.10796 8.31579 8.32679 8.38025 8.02142 8.15714
3.5 9.19582 8.48801 8.27628 8.576 8.57601 8.88632 8.74873 8.54109 8.79421 8.41302 8.33795 8.40293 8.72998 8.27424 8.55547 8.70313 8.75991 8.5825 8.55338 8.97453 8.53541 8.46193 8.65199 8.55887 8.659 8.587 8.93569 9.01692 8.73849 8.54072
3.8 9.43411 8.58493 8.75248 8.87362 8.89137 8.95445 9.02487 8.86268 8.73074 8.8025 8.80559 8.82662 8.73562 8.71739 8.86859 8.92621 9.01118 9.03784 8.75309 9.02651 8.76259 8.75233 8.82347 8.80319 8.92972 8.94716 9.13291 9.14268 8.87446 9.02413
4.1 9.0167 8.39952 8.46754 8.49336 8.46519 8.76402 8.68215 8.62759 8.48859 8.38651 8.38795 8.46567 8.46273 8.3965 8.32417 8.57198 8.57523 8.53601 8.58941 8.79686 8.46049 8.54048 8.35123 8.50121 8.57176 8.51168 8.52959 8.80677 8.37698 8.4501
4.4 8.27803 7.80866 7.76498 7.93206 7.8924 8.04549 7.88197 7.79489 7.83578 7.75417 7.77706 7.74475 7.85176 7.70713 7.7364 7.90753 7.98034 7.9121 7.81383 7.97263 7.66874 7.76031 7.75523 7.80501 7.95334 7.97213 8.04259 8.02276 7.61761 7.96171
4.7 7.62123 6.9751 6.87544 7.24289 6.96778 7.21517 7.22726 7.11688 7.0575 7.06437 7.08747 7.0023 7.12035 6.90828 6.968 6.96305 7.10779 7.17464 7.09586 7.21846 6.87541 6.92571 6.93353 7.07942 7.09779 7.17253 7.14582 7.25601 6.94014 7.12134
5 6.96691 6.45727 6.55693 6.5877 6.61555 6.68912 6.67575 6.55879 6.61286 6.37228 6.36305 6.46084 6.57605 6.46196 6.37239 6.5528 6.77678 6.55294 6.45298 6.71951 6.42038 6.2894 6.49997 6.46996 6.5838 6.48711 6.66253 6.81895 6.39278 6.59761
5.3 6.29899 5.74107 5.98977 5.99463 5.91266 6.14089 6.12779 6.00092 5.91801 5.71611 5.96726 5.74833 5.94234 5.91356 5.82783 6.04852 5.92702 6.02891 5.97883 6.04707 5.74167 5.90423 5.78834 5.84998 5.93467 5.94138 5.98361 6.04452 5.82514 5.98434
5.6 5.61928 5.14775 5.31343 5.34494 5.30338 5.46327 5.32815 5.25876 5.21464 5.18872 5.17964 5.1486 5.31697 5.10775 5.18977 5.23078 5.34281 5.36481 5.24934 5.28144 5.13714 5.23618 5.20453 5.18643 5.2553 5.32877 5.32562 5.3684 5.227 5.29867
5.9 4.68321 4.38465 4.41131 4.60682 4.44849 4.60124 4.5832 4.50102 4.40051 4.49761 4.33898 4.2893 4.45871 4.37193 4.54813 4.49601 4.43308 4.5626 4.4205 4.63386 4.29016 4.39048 4.35227 4.39872 4.43897 4.52643 4.51572 4.54362 4.24984 4.46794
6.2 4.06764 3.85631 3.86279 3.92043 3.83201 3.93601 3.97483 3.88746 3.8937 3.88522 3.80574 3.8115 3.79214 3.87288 3.86655 3.89481 3.89184 3.88227 3.82806 3.90009 3.86725 3.90281 3.86643 3.89498 3.93288 3.92257 3.8943 4.07813 3.80836 3.99694
6.5 3.78439 3.36671 3.6351 3.61682 3.51724 3.66894 3.43026 3.52463 3.55108 3.4559 3.42315 3.40372 3.41647 3.40502 3.54875 3.55714 3.51543 3.55071 3.49921 3.55347 3.51895 3.39061 3.34807 3.57855 3.61487 3.58678 3.60128 3.67702 3.54737 3.4129
6.8 3.47707 3.35486 3.26458 3.4429 3.3348 3.45259 3.4056 3.35147 3.32271 3.22155 3.25238 3.22297 3.32382 3.36693 3.2805 3.42713 3.41121 3.33905 3.29768 3.3877 3.28446 3.27723 3.29549 3.31246 3.32409 3.39559 3.43131 3.37857 3.37074 3.2769
7.1 3.36451 3.20144 3.15196 3.21469 3.24772 3.19373 3.27198 3.18335 3.15432 3.09527 3.12552 3.13181 3.17007 3.21012 3.19782 3.18518 3.2591 3.30296 3.20859 3.32097 3.13794 3.17858 3.19828 3.23208 3.18395 3.18268 3.28713 3.31154 3.0366 3.21938
7.4 3.49417 3.26735 3.27256 3.21231 3.27029 3.25043 3.33091 3.34514 3.20985 3.18427 3.19428 3.20577 3.27533 3.24835 3.1201 3.33715 3.29605 3.2068 3.15188 3.40829 3.15531 3.20717 3.21531 3.25662 3.33067 3.2704 3.33845 3.33546 3.1055 3.25559
7.7 3.45272 3.30547 3.26133 3.36187 3.2622 3.3949 3.29137 3.37301 3.20332 3.19082 3.23231 3.21901 3.34965 3.25328 3.26316 3.29639 3.36909 3.3078 3.29293 3.44874 3.23745 3.25616 3.23086 3.43461 3.28235 3.34493 3.42666 3.34367 3.22651 3.27907
8 3.52156 3.31711 3.39702 3.36725 3.36624 3.39308 3.33661 3.32951 3.36317 3.27742 3.19191 3.26529 3.30366 3.28321 3.39606 3.27845 3.29586 3.39407 3.30847 3.41994 3.29354 3.25109 3.26544 3.38588 3.345 3.4174 3.2633 3.36613 3.1425 3.28029
8.3 3.46385 3.2911 3.24587 3.27618 3.31605 3.34079 3.28345 3.28041 3.25728 3.20678 3.28643 3.25206 3.26541 3.25042 3.27933 3.28059 3.27157 3.28398 3.30005 3.26628 3.26697 3.23484 3.25503 3.30115 3.29035 3.28132 3.24649 3.33151 3.23365 3.28695
8.6 3.29802 3.16837 3.11121 3.27723 3.17945 3.16084 3.2711 3.23987 3.16562 3.14728 3.20905 3.20437 3.21129 3.15885 3.19326 3.28385 3.26581 3.27311 3.11044 3.21734 3.22245 3.21059 3.22302 3.2546 3.26247 3.14649 3.19904 3.24132 3.15018 3.2949
8.9 3.32171 3.1609 3.25204 3.15198 3.13617 3.24871 3.13252 3.17645 3.10364 3.05594 3.17007 3.0959 3.05102 3.07833 3.10606 3.13058 3.08961 3.23003 3.19258 3.10384 2.99267 3.01492 3.00807 3.11089 3.13489 3.05601 3.12728 3.22036 3.07547 3.10142
9.2 3.21321 3.08061 3.02298 3.06081 3.04537 3.11312 3.02571 3.07701 3.05824 2.97172 3.03653 3.03528 3.04124 2.98085 3.0368 3.09503 3.03746 3.10112 3.05034 3.01 3.00928 3.052 3.05709 3.04377 3.1122 3.06129 3.02305 3.12638 2.99753 3.03495
9.5 3.18781 2.97632 2.95387 3.0056 2.99625 3.06699 2.95853 2.96479 2.96151 2.90212 2.95144 2.93594 2.95354 2.91772 2.95876 2.97877 2.9482 2.9964 2.98376 2.97605 2.95344 2.98298 2.95832 2.99613 2.9876 2.90781 2.92829 3.00485 2.92839 2.96152
9.8 2.96484 2.7828 2.74694 2.80675 2.78402 2.87432 2.7931 2.82578 2.77556 2.74798 2.77387 2.73481 2.78898 2.75399 2.77933 2.82286 2.7723 2.82753 2.79652 2.77274 2.72287 2.77361 2.76557 2.83937 2.81518 2.78774 2.76903 2.84306 2.73073 2.80308
10.1 2.62525 2.50954 2.48717 2.48771 2.51968 2.56649 2.50456 2.51117 2.52338 2.44792 2.50584 2.49315 2.48926 2.47653 2.51523 2.55229 2.53438 2.52769 2.49331 2.48379 2.47794 2.52327 2.46548 2.51996 2.54235 2.49041 2.51627 2.55583 2.47353 2.46413
10.4 2.41829 2.32554 2.30517 2.33243 2.32385 2.35015 2.31935 2.32498 2.29299 2.25013 2.28575 2.28822 2.30575 2.28175 2.29461 2.31924 2.3006 2.32101 2.30191 2.29287 2.31015 2.29659 2.27776 2.3114 2.31287 2.33196 2.29954 2.33813 2.25213 2.30415
10.7 2.31248 2.17309 2.19057 2.20126 2.17875 2.22755 2.19769 2.13836 2.19003 2.10828 2.16649 2.15985 2.17429 2.14597 2.17385 2.19588 2.1709 2.20669 2.18993 2.17782 2.14189 2.16083 2.15713 2.17156 2.20868 2.19254 2.17748 2.2277 2.1425 2.17396
11 2.18877 2.10909 2.0896 2.09698 2.09553 2.17079 2.06912 2.11407 2.08165 2.04965 2.10183 2.07633 2.07267 2.07961 2.06831 2.09271 2.08 2.11312 2.1163 2.10877 2.09229 2.08293 2.09333 2.10123 2.10023 2.08506 2.06099 2.14957 2.07075 2.09712
11.3 2.1342 2.03079 2.03348 2.06074 2.05464 2.10457 2.05128 2.08492 2.05548 2.02867 2.06018 2.03568 2.03023 2.02015 2.02978 2.03328 2.0505 2.07022 2.06039 2.04967 2.00624 2.02884 2.00981 2.04702 2.10972 2.05051 2.01538 2.10048 2.0328 2.05862
11.6 2.12759 2.01107 2.00463 2.0197 2.02734 2.05408 1.99329 2.02085 1.99301 1.97851 2.01927 2.01061 2.0173 2.00249 1.96344 2.00422 2.02863 2.02683 2.00701 2.03114 1.95696 1.99692 2.00989 2.05122 2.05906 1.9767 1.9992 2.03711 1.96534 2.0003
11.9 2.06288 1.97873 1.98173 1.96887 1.96944 2.01208 1.98938 1.95915 1.97977 1.93109 1.96985 1.9856 1.95487 1.93587 1.91858 1.97313 1.96579 1.9902 1.96554 1.97618 1.94503 1.99422 1.94407 2.00124 2.00344 1.98785 1.98386 1.97836 1.91802 1.97047
12.2 1.9951 1.92682 1.93273 1.94336 1.92877 1.97132 1.92284 1.933 1.91561 1.87722 1.87525 1.90277 1.91297 1.86772 1.90724 1.93409 1.93232 1.93751 1.9108 1.92263 1.91281 1.90733 1.89497 1.94929 1.9329 1.90886 1.90255 1.96905 1.86598 1.91156
12.5 1.97401 1.87951 1.86224 1.88975 1.87771 1.90915 1.8407 1.89637 1.84546 1.82314 1.8538 1.84241 1.85325 1.8497 1.81898 1.89804 1.86515 1.86718 1.87507 1.83314 1.82314 1.85886 1.84519 1.8687 1.90129 1.84798 1.81475 1.89102 1.79949 1.87321
12.8 1.90223 1.81227 1.76402 1.80176 1.79479 1.83422 1.78674 1.80254 1.79357 1.7611 1.76454 1.73609 1.7505 1.74496 1.771 1.80964 1.80493 1.79434 1.8037 1.78617 1.76238 1.78124 1.77714 1.81367 1.80736 1.76253 1.77487 1.81453 1.76368 1.78321
13.1 1.8049 1.72196 1.69797 1.74781 1.74888 1.79366 1.73191 1.73244 1.72089 1.70923 1.71652 1.71992 1.73963 1.68602 1.69729 1.72291 1.71378 1.7447 1.73349 1.73347 1.7378 1.70412 1.72706 1.75344 1.73914 1.72186 1.71319 1.76086 1.68176 1.71702
13.4 1.76377 1.69895 1.63156 1.69 1.66199 1.71612 1.69237 1.68197 1.68055 1.64881 1.66734 1.67492 1.67968 1.63935 1.65112 1.65537 1.67138 1.71002 1.68391 1.67949 1.65585 1.65187 1.66034 1.68421 1.67308 1.67824 1.66639 1.66794 1.647 1.67843
13.7 1.69971 1.61654 1.61411 1.60244 1.58244 1.65446 1.5908 1.6386 1.63312 1.59609 1.612 1.61716 1.63609 1.58108 1.62773 1.62191 1.61928 1.6333 1.60712 1.60261 1.60589 1.59129 1.57614 1.623 1.63958 1.6139 1.6063 1.64014 1.5659 1.609
14 1.68599 1.60012 1.58542 1.58597 1.57951 1.61766 1.59545 1.60259 1.56976 1.54553 1.57125 1.57843 1.5912 1.54793 1.57472 1.5915 1.57021 1.61581 1.59023 1.58247 1.55464 1.55486 1.56691 1.58899 1.60328 1.56031 1.58487 1.61283 1.54179 1.60982
14.3 1.62414 1.56786 1.54051 1.54285 1.56853 1.59493 1.55374 1.56079 1.54535 1.50609 1.53085 1.53894 1.56383 1.52437 1.51244 1.53919 1.55493 1.56398 1.55479 1.5445 1.54069 1.56865 1.53506 1.5492 1.57279 1.54344 1.53894 1.58118 1.54192 1.55798
14.6 1.60312 1.52501 1.51735 1.51649 1.51237 1.55639 1.51001 1.54793 1.50576 1.46422 1.5316 1.53158 1.50286 1.50474 1.50549 1.52768 1.51261 1.53136 1.52603 1.51948 1.50032 1.51239 1.49653 1.52455 1.51309 1.51944 1.50694 1.52299 1.5195 1.49844
14.9 1.55672 1.48921 1.46463 1.49192 1.49689 1.51174 1.49786 1.49421 1.48236 1.46109 1.46764 1.46171 1.47547 1.45284 1.46586 1.48411 1.4833 1.48483 1.48813 1.46828 1.47458 1.48874 1.44918 1.4947 1.49641 1.4852 1.49021 1.51646 1.45119 1.49466
15.2 1.50824 1.45409 1.44188 1.45179 1.42509 1.47193 1.44148 1.47238 1.43161 1.43171 1.43197 1.43521 1.43901 1.40058 1.43204 1.45147 1.44779 1.45035 1.42625 1.42399 1.42444 1.42391 1.42547 1.45319 1.46848 1.41677 1.43075 1.44999 1.42702 1.45478
15.5 1.50367 1.39778 1.39465 1.41181 1.41362 1.42375 1.40015 1.418 1.41275 1.37215 1.41595 1.36424 1.40292 1.37208 1.4113 1.41531 1.41739 1.39192 1.4066 1.38989 1.39609 1.39921 1.38083 1.4178 1.41447 1.41079 1.39801 1.426 1.38008 1.41219
15.8 1.42085 1.3691 1.36645 1.40117 1.37262 1.40162 1.3769 1.36958 1.37899 1.36497 1.34297 1.3496 1.36338 1.32769 1.36169 1.3859 1.37119 1.35708 1.38863 1.36236 1.35204 1.36653 1.36187 1.39067 1.37378 1.36078 1.34657 1.3648 1.33889 1.35629
16.1 1.39284 1.34405 1.31068 1.31531 1.31489 1.36146 1.33151 1.35051 1.35112 1.31888 1.32057 1.328 1.32091 1.30637 1.32552 1.35054 1.31758 1.34336 1.32465 1.32597 1.31112 1.30598 1.32163 1.34588 1.34034 1.32175 1.30953 1.35228 1.29188 1.32328
16.4 1.31529 1.2418 1.25103 1.24451 1.27175 1.26849 1.2595 1.26242 1.25556 1.26535 1.25286 1.28497 1.2451 1.27377 1.22912 1.26191 1.25282 1.25565 1.25816 1.26817 1.234 1.25372 1.24936 1.24635 1.28296 1.24533 1.2414 1.26796 1.26857 1.24762
16.7 1.31845 1.2556 1.2524 1.25614 1.24818 1.27333 1.26608 1.26987 1.25623 1.2414 1.25756 1.22048 1.24607 1.23846 1.25979 1.26586 1.25703 1.27664 1.26069 1.24265 1.24205 1.2384 1.23616 1.24887 1.24314 1.24988 1.2468 1.29289 1.22385 1.24557
17 1.262 1.23233 1.21946 1.22733 1.21675 1.24181 1.19864 1.22603 1.20714 1.21411 1.21874 1.22969 1.21586 1.24206 1.19935 1.23876 1.22869 1.23912 1.21989 1.22107 1.1972 1.19388 1.19625 1.2302 1.22291 1.21363 1.19188 1.24103 1.21778 1.19979
17.3 1.29044 1.23702 1.22551 1.2541 1.21769 1.25316 1.25651 1.25589 1.23939 1.22522 1.24787 1.22964 1.22088 1.24844 1.22616 1.25256 1.21782 1.24594 1.23555 1.23777 1.22047 1.23833 1.22968 1.24747 1.26978 1.22577 1.23047 1.2551 1.23961 1.21443
17.6 1.28552 1.22247 1.23412 1.24129 1.22155 1.24222 1.23622 1.25962 1.22722 1.2215 1.23459 1.22159 1.22171 1.22169 1.2041 1.22634 1.23066 1.25828 1.2382 1.25043 1.21988 1.21981 1.24212 1.22385 1.23525 1.24015 1.19874 1.2548 1.21254 1.22673
17.9 1.27564 1.21754 1.20688 1.24265 1.23109 1.22842 1.23903 1.22022 1.21997 1.21553 1.22474 1.21736 1.23418 1.2227 1.20184 1.23865 1.20901 1.22835 1.20169 1.24692 1.20439 1.21438 1.20716 1.21393 1.24477 1.2198 1.21582 1.22225 1.20424 1.2205
18.2 1.27257 1.20772 1.20989 1.21296 1.21079 1.23378 1.2362 1.21593 1.19588 1.19755 1.22152 1.19906 1.22111 1.21132 1.19424 1.21653 1.22433 1.23313 1.21618 1.214 1.20523 1.21316 1.20755 1.20235 1.22496 1.21543 1.20953 1.21538 1.20265 1.20246
18.5 1.25834 1.19945 1.20884 1.19557 1.21521 1.20957 1.2115 1.22568 1.19837 1.18344 1.23361 1.19134 1.19129 1.21065 1.21352 1.20066 1.21071 1.22667 1.19177 1.21915 1.20012 1.20388 1.19576 1.22116 1.21959 1.20343 1.18788 1.21799 1.20398 1.18632
18.8 1.23898 1.22197 1.20901 1.21527 1.19826 1.21399 1.21538 1.21225 1.16975 1.20044 1.20895 1.19312 1.1852 1.20901 1.17084 1.20267 1.2082 1.21208 1.18911 1.20183 1.20957 1.19822 1.20968 1.20378 1.21698 1.19473 1.19695 1.22211 1.19265 1.19379
19.1 1.22669 1.18635 1.18131 1.18833 1.19627 1.20376 1.19186 1.21239 1.17683 1.18225 1.17831 1.18184 1.18098 1.20383 1.19121 1.18845 1.19611 1.21306 1.19595 1.20254 1.17552 1.19498 1.1856 1.20882 1.20183 1.17728 1.17278 1.20745 1.18927 1.16409
19.4 1.23355 1.18667 1.18412 1.18907 1.21524 1.20981 1.20241 1.18211 1.18146 1.16183 1.19459 1.1862 1.20303 1.21666 1.16686 1.19364 1.19413 1.209 1.17683 1.19661 1.15955 1.19644 1.18462 1.1949 1.19219 1.18456 1.1578 1.18974 1.1808 1.17853
19.7 1.22036 1.19756 1.172 1.1919 1.16203 1.19991 1.1726 1.18203 1.17659 1.16202 1.1667 1.1794 1.17115 1.18595 1.16308 1.17596 1.17695 1.19754 1.16669 1.16761 1.15818 1.16787 1.19088 1.17289 1.20291 1.1808 1.16868 1.18701 1.19046 1.17479
20 1.21414 1.18341 1.16419 1.19714 1.18222 1.20059 1.18582 1.18184 1.15961 1.14683 1.17362 1.15092 1.16974 1.18675 1.15845 1.1993 1.1666 1.21071 1.171 1.16699 1.1734 1.16744 1.16724 1.17624 1.19513 1.17657 1.16667 1.17923 1.17198 1.17301
20.3 1.2014 1.1732 1.16394 1.18314 1.15839 1.19505 1.16496 1.16959 1.16551 1.16109 1.18424 1.16098 1.1657 1.1659 1.14797 1.16029 1.18071 1.18037 1.16023 1.15197 1.15616 1.1393 1.16153 1.15519 1.17494 1.16061 1.16622 1.18239 1.16433 1.15927
20.6 1.2159 1.17594 1.15874 1.17027 1.15892 1.18263 1.1698 1.17559 1.14363 1.1498 1.18104 1.15083 1.15289 1.16439 1.16184 1.15552 1.16095 1.18919 1.15737 1.1768 1.16283 1.18267 1.17135 1.15468 1.1781 1.16605 1.15515 1.16765 1.16168 1.15823
20.9 1.19243 1.15444 1.16765 1.18099 1.16548 1.17338 1.16114 1.17598 1.15076 1.14584 1.18052 1.15408 1.1748 1.17131 1.15398 1.1628 1.1714 1.18439 1.17247 1.17217 1.15031 1.15995 1.16337 1.16311 1.18028 1.15708 1.15782 1.19612 1.15049 1.15846
21.2 1.19445 1.16997 1.15554 1.16963 1.14626 1.18591 1.17146 1.18329 1.1449 1.14648 1.14654 1.14139 1.17184 1.16389 1.16877 1.15245 1.17208 1.17663 1.16593 1.15295 1.15214 1.16733 1.17757 1.14645 1.16586 1.16983 1.15384 1.18554 1.1454 1.16337
21.5 1.17876 1.15854 1.14662 1.16663 1.14099 1.1507 1.1577 1.16461 1.13273 1.13991 1.14881 1.14751 1.15779 1.14476 1.13736 1.16729 1.15282 1.16596 1.15875 1.15218 1.13223 1.14588 1.15572 1.15479 1.16233 1.16395 1.14188 1.18523 1.16007 1.13306
21.8 1.19089 1.16021 1.14915 1.16248 1.15803 1.16403 1.16785 1.16244 1.14397 1.12641 1.15076 1.15153 1.14496 1.15309 1.14603 1.14949 1.15415 1.17009 1.16519 1.16525 1.13429 1.13091 1.14772 1.16203 1.16629 1.14849 1.15407 1.15906 1.14197 1.16267
22.1 1.18852 1.17124 1.14313 1.15495 1.15874 1.17265 1.16917 1.16514 1.1342 1.11953 1.14616 1.15357 1.15283 1.15309 1.14259 1.13707 1.16272 1.15043 1.13655 1.17162 1.14301 1.15873 1.15754 1.1569 1.16971 1.15545 1.15373 1.1687 1.15234 1.14124
22.4 1.19043 1.16489 1.13139 1.15393 1.15229 1.16986 1.15814 1.16806 1.15155 1.15521 1.16669 1.15378 1.15381 1.16022 1.15359 1.16055 1.16686 1.18044 1.15567 1.16612 1.15284 1.15009 1.15897 1.17627 1.15497 1.14647 1.14762 1.16891 1.15572 1.14553
22.7 1.20141 1.168 1.13267 1.17108 1.1287 1.16392 1.16497 1.15434 1.14766 1.13225 1.1366 1.14258 1.163 1.15726 1.13466 1.15171 1.14419 1.17023 1.12491 1.16672 1.12837 1.15081 1.15512 1.1486 1.17379 1.14567 1.13559 1.1656 1.14727 1.15441
23 1.20499 1.15406 1.13868 1.16939 1.13152 1.16944 1.14571 1.16272 1.14892 1.14004 1.15936 1.13782 1.15473 1.13885 1.1488 1.13277 1.1335 1.16099 1.13575 1.14765 1.14486 1.15658 1.14303 1.1534 1.17429 1.14007 1.14565 1.15964 1.15837 1.1482
23.3 1.18137 1.1521 1.13892 1.17018 1.14814 1.17102 1.15914 1.15627 1.15979 1.14217 1.14612 1.14228 1.14805 1.13873 1.14146 1.17204 1.14952 1.17059 1.15463 1.16382 1.13814 1.15466 1.15434 1.15665 1.16971 1.17095 1.15026 1.16904 1.15315 1.15518
23.6 1.21684 1.15254 1.13566 1.15865 1.15281 1.16817 1.15134 1.1597 1.15431 1.12957 1.16278 1.14863 1.13922 1.16657 1.14475 1.16141 1.15024 1.16768 1.13065 1.14438 1.14412 1.14997 1.15911 1.16239 1.1761 1.16502 1.14639 1.16597 1.15749 1.15501
23.9 1.18077 1.1544 1.14169 1.15434 1.14129 1.14611 1.16256 1.16042 1.15015 1.14109 1.13424 1.13888 1.14488 1.15105 1.14787 1.14532 1.13822 1.16294 1.1497 1.15329 1.1413 1.14461 1.14899 1.13196 1.15435 1.14007 1.13146 1.15194 1.14113 1.13148
24.2 1.19951 1.15652 1.14192 1.13456 1.14796 1.16855 1.14605 1.16169 1.14575 1.14412 1.15318 1.14963 1.15516 1.14921 1.14588 1.1407 1.14258 1.16241 1.14601 1.1586 1.13413 1.1389 1.15399 1.14411 1.15596 1.14434 1.14015 1.15934 1.14541 1.12323
24.5 1.18209 1.14973 1.13496 1.1497 1.12521 1.16052 1.1417 1.14022 1.13084 1.12708 1.12992 1.13758 1.14562 1.14704 1.11692 1.15183 1.12587 1.14723 1.15131 1.14755 1.12446 1.1279 1.14112 1.14242 1.15852 1.13286 1.13525 1.14619 1.12802 1.14251
24.8 1.18178 1.13851 1.13481 1.14112 1.14826 1.1481 1.14309 1.13901 1.13386 1.14272 1.15463 1.11775 1.14169 1.14591 1.12696 1.14247 1.13858 1.13253 1.14401 1.14288 1.13631 1.13979 1.13152 1.14103 1.14298 1.13462 1.13167 1.13832 1.14053 1.13394
25.1 1.16835 1.13466 1.13416 1.12755 1.13232 1.14697 1.14384 1.14583 1.11242 1.12293 1.13056 1.14689 1.13296 1.12807 1.13328 1.14247 1.1413 1.1437 1.14296 1.1465 1.10992 1.14031 1.138 1.13661 1.14511 1.12475 1.1357 1.13734 1.12897 1.11133
25.4 1.16336 1.12588 1.11369 1.1267 1.12176 1.14481 1.12963 1.12898 1.11942 1.11985 1.12873 1.10523 1.12295 1.1188 1.11941 1.1243 1.12735 1.13225 1.12487 1.13155 1.10069 1.12328 1.12752 1.13907 1.13882 1.10569 1.12081 1.11721 1.11413 1.10058
25.7 1.14532 1.12604 1.11335 1.12407 1.12548 1.12801 1.12722 1.13365 1.11615 1.10501 1.12787 1.11746 1.12565 1.12789 1.10294 1.12374 1.1214 1.13239 1.11837 1.11949 1.11081 1.12144 1.09811 1.14199 1.13251 1.12359 1.1202 1.12062 1.11749 1.11619
26 1.15636 1.12613 1.12997 1.12676 1.11916 1.12728 1.12181 1.12161 1.10254 1.10855 1.12926 1.11026 1.11263 1.1095 1.11778 1.11152 1.11747 1.12087 1.1195 1.11583 1.0975 1.1128 1.14529 1.11799 1.12933 1.12457 1.11621 1.13715 1.11412 1.10275
26.3 1.15035 1.10939 1.09689 1.11415 1.11037 1.11674 1.10858 1.11033 1.11966 1.08985 1.12071 1.10652 1.10564 1.10448 1.10988 1.10481 1.105 1.12553 1.11334 1.10578 1.09256 1.1137 1.1266 1.11596 1.12089 1.09446 1.10431 1.10653 1.10994 1.12441
26.6 1.12674 1.095 1.10037 1.11699 1.09434 1.12212 1.10464 1.12541 1.1209 1.06787 1.11045 1.09278 1.10385 1.10617 1.10487 1.09515 1.1062 1.1129 1.0958 1.11216 1.10419 1.09372 1.10713 1.09748 1.10837 1.10133 1.1066 1.10979 1.09206 1.1121
26.9 1.11893 1.09278 1.0968 1.09714 1.09416 1.10677 1.09302 1.09373 1.10055 1.06968 1.09929 1.10152 1.09693 1.09234 1.09055 1.10598 1.09757 1.10941 1.076 1.10701 1.08383 1.09028 1.10169 1.08045 1.11313 1.08649 1.08866 1.09997 1.1097 1.09368
27.2 1.1237 1.08637 1.09659 1.10257 1.08682 1.10196 1.08469 1.09275 1.07546 1.08665 1.09652 1.09983 1.08249 1.09829 1.06795 1.08901 1.10999 1.09101 1.08967 1.09992 1.07184 1.10264 1.09889 1.08514 1.09869 1.09212 1.09317 1.10297 1.07736 1.08832
27.5 1.11704 1.08794 1.08076 1.09938 1.08241 1.09 1.08546 1.09352 1.06021 1.08117 1.08298 1.08122 1.08297 1.083 1.07676 1.07515 1.09113 1.09446 1.07263 1.08058 1.07862 1.09936 1.09333 1.08109 1.09595 1.06882 1.08366 1.08531 1.08892 1.06402
27.8 1.10845 1.06716 1.05998 1.07861 1.08648 1.0881 1.07455 1.08293 1.06247 1.05033 1.07148 1.06793 1.07518 1.07317 1.07148 1.05602 1.08288 1.06644 1.05961 1.08196 1.05322 1.07052 1.06912 1.05845 1.08071 1.05132 1.07699 1.0739 1.07316 1.07475
28.1 1.08553 1.06435 1.05887 1.06256 1.06042 1.0724 1.06255 1.06379 1.05989 1.04827 1.06857 1.06985 1.05712 1.05499 1.05565 1.06077 1.05649 1.06684 1.06383 1.06212 1.05334 1.06771 1.05094 1.06463 1.08039 1.0567 1.05863 1.06535 1.06448 1.04479
28.4 1.07245 1.06594 1.07369 1.06072 1.05112 1.06434 1.05291 1.0558 1.05389 1.03861 1.04257 1.04853 1.04618 1.04233 1.03645 1.04992 1.04248 1.07455 1.05524 1.06521 1.03575 1.03272 1.06634 1.05179 1.06683 1.06757 1.04524 1.0498 1.04503 1.03791
28.7 1.05789 1.03011 1.03483 1.03656 1.04386 1.0463 1.04281 1.03197 1.02669 1.02767 1.04306 1.03567 1.03186 1.03818 1.02598 1.03194 1.04045 1.04182 1.0346 1.0407 1.0229 1.0356 1.04115 1.02969 1.04881 1.03985 1.03269 1.03546 1.02919 1.03029
29 1.05304 1.02477 1.02317 1.02775 1.02936 1.03135 1.03173 1.04684 1.0136 1.02217 1.02443 1.03596 1.02407 1.033 1.01495 1.0356 1.02926 1.03652 1.01732 1.03391 1.01882 1.03117 1.03784 1.02348 1.03893 1.03306 1.015 1.03477 1.01395 1.0187
29.3 1.03792 1.01816 1.00984 1.00848 0.992735 1.02124 1.0137 1.01353 1.01069 0.998918 1.014 1.00386 1.00939 0.998187 1.01231 1.0118 1.01105 1.03037 1.01632 1.00883 0.99839 1.00931 1.00194 1.01538 1.02736 1.01286 1.00577 1.00989 1.01888 1.00304
29.6 1.03915 1.00541 1.00428 0.993803 0.999198 1.0135 1.00386 1.01029 1.00587 0.994686 1.00378 0.986604 0.992425 0.991969 0.986798 1.00906 0.989061 1.01968 1.00596 0.998913 0.970052 1.00915 0.997118 1.01246 1.00839 0.996199 0.999741 0.993082 1.0068 1.00417
29.9 1.00659 0.984336 0.979151 0.975479 0.970979 0.981031 0.985735 0.993476 0.987073 0.967526 0.987509 0.980257 0.966546 0.978563 0.98242 0.999645 0.967516 0.992761 0.980043 0.981464 0.974272 0.987928 0.979521 0.983672 0.986634 0.982314 0.987932 0.997715 0.983593 0.980859
30.2 0.996058 0.983964 0.980727 0.979819 0.956185 0.970484 0.975228 0.98213 0.977987 0.981088 0.971107 0.971718 0.971797 0.974596 0.963775 0.969234 0.975395 0.984441 0.975735 0.981181 0.97245 0.975429 0.971375 0.976604 0.977864 0.973264 0.972615 0.989475 0.977772 0.983551
30.5 0.982549 0.958015 0.962059 0.959818 0.943305 0.959974 0.966639 0.955752 0.954922 0.93883 0.970208 0.959294 0.960843 0.944268 0.947527 0.958706 0.956659 0.958166 0.945322 0.953018 0.959118 0.952814 0.963882 0.958493 0.978291 0.939623 0.959018 0.957391 0.9543 0.940401
30.8 0.959087 0.927998 0.929283 0.951991 0.938899 0.960021 0.946566 0.947684 0.935889 0.934059 0.959245 0.93662 0.939818 0.930996 0.938646 0.955546 0.946547 0.945185 0.939395 0.938617 0.932003 0.937081 0.946568 0.943696 0.953687 0.946029 0.952253 0.94343 0.937204 0.948234
31.1 0.949829 0.927413 0.927689 0.927857 0.921685 0.93682 0.935142 0.926823 0.919069 0.919579 0.932068 0.91803 0.917705 0.925122 0.921853 0.923983 0.920403 0.941472 0.92977 0.923966 0.922849 0.927828 0.928778 0.929145 0.93403 0.913261 0.918319 0.926468 0.914505 0.924843
31.4 0.931869 0.92528 0.910819 0.91012 0.924788 0.912743 0.91203 0.910286 0.897445 0.896964 0.917942 0.911459 0.909816 0.915586 0.905663 0.91593 0.911509 0.915174 0.898282 0.918459 0.907948 0.904416 0.908854 0.910434 0.92042 0.902126 0.912511 0.924566 0.906608 0.894362
31.7 0.906761 0.899641 0.893198 0.91062 0.885993 0.901864 0.891432 0.912055 0.894867 0.883128 0.896207 0.8834 0.885195 0.893748 0.872247 0.898787 0.90033 0.890776 0.886894 0.905853 0.888371 0.893328 0.883884 0.897689 0.900137 0.889291 0.882143 0.901697 0.886858 0.889223
32 0.905744 0.876773 0.879605 0.885426 0.873177 0.894669 0.877167 0.888772 0.863959 0.875448 0.874057 0.873445 0.871151 0.875818 0.872789 0.888016 0.861908 0.880496 0.874143 0.88192 0.870822 0.869793 0.869656 0.886638 0.878734 0.871774 0.868703 0.886735 0.878229 0.874622
32.3 0.876933 0.864356 0.853924 0.870165 0.856383 0.87603 0.854724 0.863191 0.864575 0.861707 0.8603 0.863779 0.851954 0.859529 0.854388 0.852532 0.852613 0.857207 0.849477 0.861351 0.853824 0.860408 0.865903 0.854347 0.87003 0.861467 0.857275 0.868353 0.856894 0.857681
32.6 0.85773 0.842705 0.847028 0.848118 0.849954 0.838848 0.843626 0.850445 0.839915 0.832321 0.841717 0.837326 0.842288 0.848467 0.843443 0.848495 0.832915 0.849502 0.836905 0.855235 0.839243 0.842155 0.830583 0.848589 0.858975 0.83554 0.8276 0.849486 0.839244 0.839891
32.9 0.841286 0.83394 0.826366 0.825456 0.819524 0.821973 0.834677 0.829968 0.829785 0.817931 0.828219 0.816626 0.829937 0.820058 0.821945 0.828502 0.829978 0.834915 0.837108 0.825984 0.816861 0.821911 0.826584 0.827435 0.82536 0.827946 0.831598 0.812662 0.827509 0.828651
33.2 0.83258 0.813272 0.81265 0.820386 0.812305 0.816654 0.821293 0.825114 0.810625 0.810703 0.815956 0.816965 0.81182 0.81154 0.812868 0.823126 0.809068 0.822113 0.82216 0.821179 0.811389 0.815737 0.817782 0.817966 0.825943 0.81087 0.815177 0.814492 0.813726 0.813813
33.5 0.811367 0.801828 0.796438 0.812697 0.796251 0.797918 0.807727 0.815161 0.804307 0.801554 0.802049 0.80395 0.80297 0.802032 0.796976 0.814396 0.803564 0.811085 0.804939 0.802424 0.802067 0.8063 0.812901 0.809421 0.805895 0.800987 0.804242 0.803066 0.800967 0.80382
33.8 0.811087 0.797422 0.790448 0.791812 0.78995 0.793411 0.794191 0.800118 0.790692 0.787317 0.794415 0.790269 0.79434 0.790095 0.786129 0.79657 0.791462 0.801931 0.795457 0.795595 0.784148 0.801606 0.791437 0.792886 0.799873 0.797592 0.792229 0.797757 0.796741 0.787043
34.1 0.789111 0.775837 0.779008 0.782925 0.781343 0.779682 0.787402 0.791161 0.776959 0.782121 0.791395 0.781006 0.777243 0.784864 0.779513 0.775045 0.775286 0.780633 0.781981 0.778163 0.771766 0.779157 0.777694 0.78121 0.781988 0.771041 0.782104 0.777362 0.782123 0.777714
34.4 0.782375 0.773677 0.762269 0.772864 0.765995 0.773055 0.768077 0.770404 0.767865 0.768306 0.767374 0.772891 0.768227 0.770004 0.767583 0.769121 0.763899 0.774342 0.76826 0.771779 0.763353 0.765856 0.764079 0.763551 0.77177 0.768304 0.772007 0.774665 0.767815 0.766463
34.7 0.763692 0.758016 0.753213 0.749524 0.752095 0.750973 0.750974 0.76007 0.757046 0.750186 0.754359 0.753622 0.753009 0.750476 0.755454 0.757307 0.758865 0.762948 0.749125 0.761775 0.757398 0.758402 0.759193 0.752659 0.761477 0.748361 0.753743 0.759582 0.754977 0.750565
35 0.749858 0.74765 0.739212 0.739328 0.738237 0.746573 0.741607 0.755353 0.742037 0.734933 0.742728 0.745363 0.746818 0.74494 0.740181 0.739138 0.735872 0.744532 0.747257 0.737572 0.737863 0.746026 0.741158 0.738082 0.747772 0.741136 0.744738 0.742087 0.745007 0.740504
35.3 0.744742 0.733986 0.73625 0.733288 0.731917 0.729184 0.731584 0.728205 0.732579 0.728786 0.734159 0.736694 0.734382 0.734465 0.725858 0.730087 0.726673 0.731407 0.730874 0.738199 0.730773 0.735244 0.732923 0.731676 0.731228 0.727969 0.728515 0.726503 0.725514 0.732618
35.6 0.728258 0.721835 0.706117 0.730001 0.716212 0.713221 0.716767 0.724742 0.710989 0.711776 0.720499 0.710131 0.719793 0.720837 0.709833 0.718273 0.713315 0.726722 0.720984 0.719067 0.716371 0.717342 0.724874 0.716391 0.720639 0.709919 0.722389 0.717504 0.713281 0.719225
35.9 0.711072 0.70648 0.698803 0.710638 0.709151 0.706454 0.710441 0.707359 0.702824 0.695382 0.706973 0.703392 0.703579 0.701028 0.707522 0.70904 0.69972 0.707217 0.705111 0.703524 0.695854 0.702673 0.698603 0.701962 0.713952 0.69529 0.704139 0.703867 0.704727 0.70205
36.2 0.703886 0.686047 0.689998 0.696388 0.688434 0.691746 0.692523 0.703075 0.687233 0.69995 0.691759 0.69757 0.690117 0.689377 0.69097 0.69568 0.69751 0.695323 0.686736 0.692192 0.690429 0.69179 0.696558 0.693803 0.701565 0.686109 0.696802 0.693244 0.689179 0.692313
36.5 0.686777 0.679378 0.676893 0.675775 0.673521 0.682894 0.679257 0.68241 0.676389 0.674431 0.687038 0.675883 0.681067 0.681303 0.678048 0.68318 0.686315 0.683683 0.679852 0.679058 0.676585 0.674145 0.677285 0.680204 0.685486 0.679683 0.688048 0.681901 0.676892 0.67663
36.8 0.671308 0.670381 0.663986 0.667283 0.661955 0.662924 0.667519 0.673505 0.662239 0.667342 0.673932 0.667636 0.668042 0.662233 0.666685 0.673139 0.666221 0.675509 0.660048 0.664671 0.66159 0.669345 0.671602 0.669968 0.672205 0.663119 0.67021 0.672132 0.666431 0.666864
37.1 0.666011 0.650117 0.658899 0.660405 0.650248 0.651325 0.659657 0.658591 0.651429 0.653795 0.65403 0.648813 0.654884 0.652312 0.652445 0.662141 0.650467 0.660869 0.65405 0.660148 0.652737 0.658387 0.662159 0.650077 0.663878 0.657937 0.660879 0.656103 0.656608 0.659825
37.4 0.647683 0.638633 0.637415 0.644951 0.64139 0.642303 0.63685 0.646428 0.640364 0.631936 0.640036 0.642553 0.637078 0.641089 0.636636 0.639081 0.635686 0.647505 0.644918 0.648829 0.635204 0.639519 0.639337 0.640119 0.648838 0.637771 0.646706 0.642833 0.646953 0.640977
37.7 0.634473 0.629516 0.629736 0.63262 0.62459 0.631216 0.630194 0.630097 0.630401 0.62503 0.631219 0.633084 0.628724 0.632456 0.629729 0.633498 0.632966 0.629846 0.629219 0.631461 0.627307 0.626282 0.627138 0.623478 0.631305 0.626278 0.634811 0.627638 0.626995 0.630464
38 0.627319 0.610698 0.618701 0.621405 0.612367 0.617755 0.614008 0.626111 0.615013 0.612332 0.615421 0.614738 0.61929 0.614712 0.614423 0.618396 0.607008 0.626006 0.619445 0.617842 0.614635 0.622048 0.614771 0.60872 0.616104 0.613389 0.616483 0.615686 0.617453 0.612527
38.3 0.614546 0.604055 0.607099 0.609626 0.603003 0.602284 0.606879 0.601618 0.603431 0.604876 0.607371 0.613238 0.60748 0.601617 0.601701 0.605329 0.600727 0.60556 0.609021 0.604563 0.604934 0.612865 0.60789 0.608412 0.607488 0.604674 0.601815 0.607561 0.601072 0.602214
38.6 0.605643 0.592611 0.590479 0.602548 0.590109 0.597721 0.593212 0.58826 0.592487 0.590377 0.600255 0.593397 0.590644 0.595435 0.590129 0.596357 0.593618 0.599869 0.595498 0.59349 0.596085 0.588947 0.597528 0.594988 0.59936 0.590717 0.592141 0.593047 0.594577 0.594804
38.9 0.590643 0.58592 0.583094 0.585079 0.582806 0.582108 0.578143 0.591416 0.586027 0.573253 0.589271 0.585219 0.582591 0.580112 0.581787 0.584733 0.587028 0.586994 0.581793 0.580094 0.582057 0.584567 0.588369 0.584279 0.585849 0.578968 0.585938 0.579961 0.583819 0.579393
39.2 0.575026 0.564563 0.566205 0.572161 0.568484 0.568307 0.574615 0.573058 0.57075 0.563349 0.569679 0.573411 0.569867 0.56911 0.565763 0.565859 0.566665 0.568515 0.569342 0.57237 0.566436 0.567117 0.56593 0.573068 0.57109 0.567581 0.571446 0.568707 0.56356 0.573263
39.5 0.559851 0.556031 0.558398 0.557487 0.553495 0.553165 0.560896 0.560912 0.553468 0.55018 0.555898 0.556365 0.553636 0.553089 0.550786 0.559245 0.555593 0.559144 0.54755 0.55134 0.548591 0.554203 0.55562 0.552997 0.56096 0.553423 0.556337 0.55524 0.548909 0.551454
39.8 0.543001 0.538114 0.534582 0.538728 0.538423 0.536314 0.5384 0.5394 0.532771 0.534483 0.538615 0.530352 0.537808 0.536823 0.532156 0.536215 0.535426 0.542473 0.535068 0.537788 0.532995 0.536466 0.533162 0.535475 0.539687 0.534453 0.540534 0.539258 0.535264 0.535011
40.1 0.531798 0.521237 0.518427 0.519534 0.515933 0.520649 0.517687 0.525836 0.516451 0.51494 0.522708 0.519208 0.523935 0.522162 0.514905 0.520101 0.517603 0.524675 0.518955 0.517209 0.513151 0.519538 0.517638 0.519289 0.519967 0.519816 0.519475 0.518807 0.520969 0.517848
40.4 0.510607 0.506634 0.503536 0.502715 0.500008 0.503734 0.504002 0.506646 0.499571 0.501817 0.502464 0.501754 0.497425 0.50058 0.497718 0.498612 0.495084 0.508332 0.501291 0.503162 0.495103 0.501458 0.496556 0.500864 0.498419 0.499939 0.502544 0.505381 0.499161 0.502414
40.7 0.491788 0.483119 0.479863 0.484338 0.477479 0.485485 0.488017 0.485754 0.479076 0.484381 0.483435 0.483455 0.485333 0.479563 0.478781 0.482687 0.483987 0.485273 0.478163 0.485463 0.481202 0.482421 0.483693 0.483706 0.482838 0.482215 0.483286 0.488196 0.482648 0.48291
41 0.471921 0.468406 0.469774 0.470699 0.46574 0.463102 0.467031 0.46873 0.468041 0.469274 0.469709 0.460088 0.470143 0.466681 0.467371 0.47295 0.46845 0.465875 0.46392 0.466495 0.460797 0.466239 0.466427 0.466667 0.467464 0.465252 0.461844 0.460402 0.467476 0.464677
41.3 0.454599 0.452515 0.45033 0.450935 0.447882 0.455025 0.448648 0.451246 0.451143 0.449745 0.45156 0.450203 0.451442 0.449647 0.454249 0.457328 0.449591 0.451272 0.449088 0.449345 0.454442 0.446544 0.450734 0.451802 0.453109 0.449221 0.454818 0.452051 0.446105 0.448893
41.6 0.440147 0.432249 0.441692 0.436822 0.433732 0.436772 0.430947 0.4315 0.431724 0.434676 0.437872 0.436955 0.436112 0.434216 0.434349 0.439958 0.436694 0.437347 0.435783 0.435651 0.437522 0.433256 0.435466 0.435422 0.435767 0.431038 0.434055 0.44023 0.429759 0.433821
41.9 0.41915 0.419559 0.423827 0.420093 0.418338 0.420008 0.419098 0.420398 0.418305 0.416734 0.41567 0.417671 0.416153 0.419404 0.419131 0.417048 0.416229 0.41551 0.423084 0.418975 0.416873 0.413445 0.421245 0.420055 0.420342 0.422419 0.415597 0.418707 0.424252 0.416324
42.2 0.400796 0.408451 0.408318 0.403616 0.404677 0.406405 0.404932 0.398635 0.403941 0.399962 0.40329 0.404878 0.402306 0.40698 0.405143 0.410902 0.402915 0.40392 0.401083 0.402233 0.402994 0.403967 0.403232 0.402221 0.399927 0.409265 0.403477 0.395531 0.406093 0.403076
42.5 0.389939 0.385599 0.38416 0.388043 0.385584 0.387823 0.386675 0.390133 0.389097 0.389811 0.385718 0.391453 0.388105 0.387545 0.388719 0.39214 0.391098 0.392216 0.390148 0.393458 0.387567 0.384546 0.386006 0.389181 0.38791 0.386755 0.386203 0.388068 0.385802 0.385053
42.8 0.377392 0.373069 0.373596 0.377242 0.373448 0.374019 0.370961 0.370964 0.367533 0.369939 0.366889 0.369776 0.372132 0.377648 0.374436 0.373946 0.374482 0.376256 0.370974 0.372535 0.376955 0.376049 0.369763 0.374519 0.368768 0.379459 0.368865 0.371961 0.368328 0.373587
43.1 0.361353 0.355704 0.356512 0.35949 0.356832 0.358031 0.358285 0.352507 0.353761 0.355715 0.35395 0.362467 0.356161 0.366158 0.356778 0.359653 0.359117 0.355813 0.358981 0.359379 0.358509 0.361798 0.357612 0.3583 0.359978 0.357469 0.355774 0.36176 0.356152 0.355212
43.4 0.349709 0.342619 0.347591 0.344118 0.346406 0.348034 0.346847 0.34503 0.344344 0.345167 0.347994 0.347169 0.342164 0.353343 0.34762 0.348683 0.347305 0.347038 0.342102 0.345824 0.343439 0.344051 0.341786 0.346381 0.350177 0.345636 0.346388 0.346821 0.343292 0.344714
43.7 0.332219 0.33013 0.338623 0.335075 0.328428 0.332309 0.331788 0.332036 0.337831 0.332528 0.337646 0.334247 0.332043 0.334653 0.334955 0.334084 0.327789 0.326494 0.332829 0.334105 0.335174 0.335082 0.332906 0.333897 0.337619 0.334106 0.330244 0.331204 0.336498 0.334509
44 0.31713 0.317623 0.313033 0.317714 0.316223 0.317327 0.32048 0.316627 0.31709 0.311807 0.314963 0.313375 0.31414 0.315366 0.315464 0.316756 0.312382 0.318 0.319501 0.314116 0.317626 0.318861 0.317786 0.309671 0.318932 0.311304 0.317542 0.318754 0.315232 0.318336
44.3 0.304294 0.299992 0.300752 0.301563 0.303154 0.300219 0.305281 0.298435 0.300524 0.298915 0.30465 0.301017 0.296485 0.30356 0.302337 0.302201 0.29833 0.301115 0.304936 0.304556 0.303859 0.301205 0.30085 0.301551 0.305154 0.303185 0.301952 0.30293 0.301554 0.302695
44.6 0.290919 0.292915 0.289219 0.292253 0.286293 0.292255 0.291551 0.289655 0.288237 0.289674 0.287085 0.292829 0.290644 0.294808 0.293017 0.29416 0.290123 0.290073 0.287786 0.292239 0.292491 0.29144 0.293784 0.289688 0.293023 0.287353 0.28905 0.286136 0.291478 0.288167
44.9 0.27677 0.275981 0.272426 0.27522 0.277598 0.272262 0.28017 0.274761 0.273121 0.274562 0.276867 0.276963 0.276203 0.275593 0.278537 0.272802 0.277127 0.273063 0.277647 0.280854 0.275943 0.280297 0.275578 0.27787 0.27569 0.279696 0.276722 0.272953 0.27435 0.278544
45.2 0.261443 0.26482 0.261749 0.259254 0.260251 0.26099 0.258336 0.257148 0.260135 0.256242 0.261818 0.256404 0.25709 0.257139 0.259716 0.260732 0.257866 0.262434 0.261102 0.256548 0.256903 0.26059 0.260975 0.258809 0.258487 0.259311 0.260803 0.255845 0.258348 0.259928
45.5 0.250122 0.245939 0.247098 0.245255 0.252005 0.248075 0.250416 0.246414 0.24919 0.249023 0.252962 0.251853 0.252609 0.248724 0.247188 0.250587 0.25058 0.251204 0.246179 0.25044 0.249022 0.250671 0.252809 0.251129 0.249323 0.248212 0.250291 0.251051 0.245814 0.245374
45.8 0.233679 0.233804 0.232724 0.233201 0.234282 0.235667 0.234731 0.233405 0.235654 0.236104 0.230109 0.236323 0.232801 0.238146 0.235337 0.23103 0.23521 0.232638 0.232949 0.232145 0.236751 0.237502 0.229809 0.238029 0.234859 0.232136 0.235248 0.23544 0.230908 0.232911
46.1 0.220592 0.222093 0.221222 0.222096 0.220747 0.225567 0.223993 0.221085 0.216668 0.224912 0.220341 0.223918 0.223878 0.221105 0.2257 0.225183 0.221124 0.222427 0.223204 0.224185 0.224128 0.21899 0.222184 0.223343 0.224691 0.219137 0.222733 0.220523 0.218566 0.228648
46.4 0.21299 0.208912 0.209733 0.213764 0.208934 0.210247 0.211482 0.209586 0.207989 0.208515 0.209026 0.212364 0.214167 0.208785 0.212256 0.210692 0.210673 0.214403 0.208999 0.210463 0.210294 0.214689 0.211441 0.211451 0.209648 0.209783 0.2071 0.21171 0.209164 0.211806
46.7 0.197008 0.196663 0.197342 0.198423 0.197666 0.196968 0.193866 0.193696 0.200029 0.195345 0.196849 0.198064 0.196205 0.200146 0.199634 0.197605 0.198341 0.196253 0.195572 0.197311 0.198078 0.204315 0.197086 0.194698 0.193908 0.200104 0.196218 0.19694 0.197295 0.197015
47 0.181228 0.184447 0.181931 0.185014 0.183558 0.183571 0.184151 0.182256 0.180121 0.182879 0.185288 0.18457 0.187066 0.181605 0.186981 0.18323 0.182475 0.186583 0.182632 0.183556 0.18179 0.185831 0.187923 0.183874 0.183466 0.186134 0.184456 0.182998 0.180859 0.181669
47.3 0.174188 0.170132 0.169595 0.17027 0.17278 0.170394 0.167997 0.168192 0.167947 0.167932 0.174409 0.171355 0.170818 0.170015 0.170419 0.170705 0.169223 0.172104 0.170806 0.165194 0.168442 0.171443 0.173251 0.170859 0.171324 0.171862 0.171792 0.170729 0.17372 0.168453
47.6 0.158182 0.160243 0.157394 0.15773 0.154172 0.154004 0.155232 0.156467 0.155492 0.160593 0.154714 0.158884 0.159032 0.156671 0.156881 0.156541 0.156756 0.15444 0.160409 0.155008 0.15621 0.15788 0.15657 0.157203 0.158385 0.152832 0.153893 0.154114 0.154983 0.156718
47.9 0.145078 0.146147 0.145676 0.145705 0.144805 0.144906 0.143056 0.149026 0.147368 0.144618 0.14445 0.141798 0.146309 0.143862 0.1458 0.148702 0.144 0.146777 0.142686 0.145075 0.142348 0.144185 0.144321 0.144893 0.145413 0.149461 0.14255 0.139013 0.140539 0.140828
48.2 0.132032 0.133904 0.136647 0.131973 0.132025 0.128222 0.132036 0.130514 0.130354 0.129404 0.131589 0.133611 0.135684 0.131668 0.132426 0.133974 0.131605 0.131745 0.130479 0.134063 0.13241 0.132418 0.133208 0.130606 0.129864 0.131765 0.133086 0.130349 0.133843 0.133707
48.5 0.12365 0.121654 0.121247 0.11966 0.124435 0.121686 0.120349 0.121315 0.120809 0.117722 0.122011 0.124172 0.122931 0.121521 0.121048 0.118348 0.12152 0.119426 0.123623 0.121218 0.118734 0.119063 0.120931 0.124519 0.120583 0.12246 0.119974 0.121637 0.120204 0.118992
48.7 0.109825 0.111897 0.117182 0.112092 0.114275 0.110435 0.112631 0.113787 0.112209 0.116399 0.114145 0.112618 0.111538 0.11026 0.115805 0.115662 0.115195 0.114649 0.111553 0.111423 0.112612 0.111107 0.112738 0.112664 0.1141 0.110646 0.1092 0.113294 0.114205 0.110968