File: iso_XRD_list.txt
# [0.0, 772.0, 1545.0, 2318.0, 3090.0, 3861.0, 4633.0, 5405.0, 6178.0, 6951.0, 7722.0, 8494.0, 9266.0, 10039.0, 10812.0, 11583.0, 12355.0, 13127.0, 13900.0, 14673.0, 15445.0, 16216.0, 16989.0, 17762.0, 18534.0, 19306.0, 20077.0, 20850.0, 21622.0, 22396.0]
0.5 4.00829 4.0257 4.26749 4.29563 4.1919 4.51262 4.3628 4.5887 4.53396 4.52669 4.56463 4.45239 4.67639 4.53836 4.66064 4.71951 4.83496 4.77844 4.90073 4.84623 4.79892 4.78812 4.96755 5.02011 5.06386 4.95262 4.85474 5.15321 5.17151 5.25298
0.8 2.36248 2.52016 2.53987 2.54534 2.59967 2.67804 2.6848 2.79597 2.68374 2.74221 2.75839 2.73291 2.72947 2.8111 2.89796 2.8866 2.92847 2.86312 2.8607 2.92225 2.91824 2.87784 2.99862 3.01132 3.00411 3.04498 2.95465 3.09182 3.11494 3.16735
1.1 2.23492 2.2929 2.34094 2.41584 2.18161 2.39466 2.38883 2.52914 2.49659 2.44712 2.35375 2.43808 2.44789 2.41868 2.49113 2.47488 2.56813 2.47062 2.52958 2.51541 2.66816 2.5901 2.49519 2.5275 2.57419 2.52392 2.52506 2.49927 2.66223 2.65581
1.4 2.38914 2.33771 2.45747 2.42921 2.39558 2.52844 2.4659 2.58356 2.44017 2.36038 2.37567 2.43694 2.58678 2.45157 2.48275 2.53132 2.55725 2.60785 2.51497 2.43169 2.5422 2.46886 2.46128 2.53684 2.44854 2.51081 2.4959 2.59819 2.53347 2.6622
1.7 2.60879 2.58718 2.80049 2.63977 2.69266 2.86463 2.71185 2.66552 2.67988 2.65219 2.57735 2.69105 2.55248 2.62129 2.76654 2.74557 2.7949 2.6969 2.72653 2.75463 2.75602 2.57504 2.71565 2.72622 2.72176 2.71764 2.68145 2.81736 2.63382 2.80373
2 3.19353 3.15686 3.17654 3.16886 3.13238 3.3819 3.18041 3.44154 3.23344 3.28438 3.10617 3.03694 3.13865 3.24637 3.15225 3.09101 3.25317 3.25733 3.32445 3.09841 3.16755 3.08712 3.09934 3.25509 3.18974 3.15221 3.09763 3.19599 3.29663 3.22915
2.3 4.07823 4.0273 3.98748 3.97346 3.93048 4.06668 4.09426 4.17778 3.9298 4.03564 3.8447 3.69399 3.90425 3.91693 4.11299 4.15379 3.98758 3.93761 3.95821 3.93305 3.95264 3.90768 3.87635 3.89712 3.96111 3.97442 3.86493 3.96701 3.85885 3.95516
2.6 5.74258 5.41604 5.65929 5.33851 5.36425 5.56791 5.45002 5.65124 5.37912 5.40474 5.39774 5.24285 5.43313 5.40815 5.30995 5.29697 5.34316 5.49533 5.54632 5.31807 5.38146 5.31598 5.39278 5.23187 5.39577 5.40099 5.21425 5.48185 5.38821 5.48433
2.9 8.06203 7.15033 7.32016 7.53881 7.33369 7.4471 7.45875 7.48171 7.1993 7.24115 7.0662 7.0021 7.24087 7.10856 7.2573 7.26889 7.42386 7.10437 7.43617 7.253 7.00251 7.10854 7.2474 7.34613 7.1994 7.13018 7.05753 7.2461 7.36088 7.33181
3.2 9.50084 8.38545 8.42029 8.44008 8.37794 8.57957 8.46833 8.60622 8.49558 8.51797 8.18757 8.27384 8.25754 8.40004 8.39664 8.32365 8.40999 8.50429 8.52619 8.47554 8.42324 8.27693 8.22882 8.39043 8.39273 8.33801 8.38222 8.35977 8.41506 8.68686
3.5 9.5784 8.63041 8.74257 8.83125 8.63747 8.83822 8.77122 8.89551 8.47165 8.56187 8.78567 8.51388 8.69901 8.77753 8.86264 8.73759 8.94898 8.90195 8.91516 8.64796 8.67709 8.73155 8.78851 8.88416 8.76635 9.04615 8.72002 8.76858 8.5757 8.90742
3.8 9.77373 8.78868 8.80588 9.0819 8.88771 8.9265 9.0147 9.04321 8.81405 8.9854 8.80039 8.78873 9.00542 8.92901 8.71367 8.90991 8.98467 8.97281 8.89607 8.90987 8.92765 8.69335 9.00055 8.93092 9.03135 8.9726 8.88487 9.14828 8.97396 9.08
4.1 9.30972 8.42564 8.63657 8.7294 8.48385 8.6174 8.55186 8.5828 8.48839 8.59442 8.48517 8.36547 8.42588 8.40946 8.79825 8.55913 8.75941 8.66378 8.63589 8.4917 8.56104 8.44207 8.70372 8.64799 8.47062 8.56676 8.45779 8.70672 8.66649 8.80652
4.4 8.51778 7.94819 7.86032 8.1082 8.01869 8.01188 7.98469 8.0373 7.97119 7.96753 7.80726 7.75485 8.06625 8.0352 7.97904 7.90555 8.10124 7.88392 8.00466 7.88171 7.86576 7.73086 7.97561 8.01559 8.03 7.93197 7.95158 8.18422 7.94031 8.04739
4.7 7.89356 7.14305 7.07744 7.4367 7.17972 7.21165 7.09282 7.23699 7.26956 7.23534 7.36843 7.12682 7.17538 7.30474 7.14538 7.12682 7.20592 7.19807 7.34482 7.276 7.20993 6.96032 7.17091 7.28384 7.22877 7.1965 7.05221 7.28105 7.14754 7.41648
5 7.34258 6.62254 6.73845 6.79874 6.66707 6.7601 6.62087 6.78143 6.54768 6.68795 6.64595 6.54395 6.73688 6.58184 6.73097 6.75227 6.91672 6.61534 6.64174 6.56467 6.57597 6.61051 6.71354 6.65527 6.53128 6.59277 6.66569 6.77688 6.68985 6.71554
5.3 6.63611 6.07351 5.94359 6.16465 5.89434 6.09867 6.05886 6.14226 6.1008 5.98979 5.99063 5.99581 6.05622 6.13079 6.14407 6.15854 6.13639 6.06744 6.06327 6.06654 6.15163 5.90137 5.96911 6.13481 6.09809 5.98978 6.02668 6.09395 6.17874 6.21134
5.6 5.94522 5.29713 5.38423 5.35328 5.33296 5.49776 5.38431 5.40635 5.41596 5.39589 5.36779 5.24816 5.32613 5.40605 5.4187 5.33508 5.3401 5.35698 5.40994 5.30931 5.46006 5.26024 5.25289 5.37948 5.3195 5.47399 5.27776 5.48041 5.44883 5.42879
5.9 5.06197 4.44912 4.50371 4.58669 4.66146 4.59334 4.61007 4.66601 4.55773 4.63096 4.44907 4.47095 4.60348 4.42527 4.63348 4.51033 4.6244 4.49961 4.55678 4.53439 4.48425 4.46502 4.64695 4.57668 4.47469 4.53781 4.54173 4.61812 4.48948 4.66842
6.2 4.29258 4.01682 4.04388 4.09017 4.0178 4.07818 3.99722 4.07736 3.90657 3.99085 3.8904 3.87735 3.94801 3.97245 4.0737 3.99174 3.96793 3.89294 4.11544 3.99863 3.95157 3.91085 3.88483 4.12338 3.91604 4.03226 3.86051 4.10684 3.95037 4.04676
6.5 3.96505 3.65077 3.63158 3.67169 3.59358 3.67741 3.61237 3.68216 3.55389 3.66095 3.57271 3.5735 3.59404 3.49923 3.73268 3.6609 3.61982 3.59196 3.56758 3.54524 3.61608 3.54956 3.61359 3.73977 3.61142 3.63285 3.5428 3.69004 3.64568 3.68873
6.8 3.73122 3.37013 3.42842 3.4739 3.41172 3.41629 3.4113 3.50793 3.2787 3.40425 3.41608 3.2823 3.40115 3.4442 3.39447 3.4053 3.46206 3.47809 3.45557 3.32067 3.39342 3.32184 3.46198 3.38449 3.3682 3.40703 3.41667 3.4885 3.41212 3.47465
7.1 3.50015 3.31854 3.28261 3.30575 3.27767 3.25252 3.18622 3.22298 3.23395 3.30156 3.22094 3.26911 3.26593 3.19254 3.30164 3.19869 3.38618 3.22721 3.26404 3.29157 3.22108 3.21641 3.31291 3.26292 3.22292 3.18614 3.19102 3.31757 3.3594 3.36075
7.4 3.67295 3.24989 3.28738 3.34284 3.37296 3.40918 3.25034 3.35831 3.33813 3.31885 3.19864 3.30383 3.25779 3.2404 3.32887 3.36489 3.31944 3.46334 3.22818 3.24843 3.35911 3.22444 3.26436 3.22194 3.36266 3.19315 3.25575 3.40369 3.19937 3.3398
7.7 3.69057 3.31633 3.43328 3.42728 3.35956 3.40677 3.31336 3.39082 3.29087 3.35079 3.28673 3.21537 3.43084 3.34956 3.35942 3.39926 3.43798 3.22481 3.37526 3.34572 3.4015 3.32244 3.33997 3.48991 3.27827 3.33259 3.3211 3.41794 3.33757 3.40606
8 3.70776 3.38438 3.28033 3.49572 3.32588 3.45549 3.3196 3.33523 3.25501 3.30484 3.29694 3.18706 3.36666 3.42883 3.35317 3.40116 3.35263 3.33008 3.38107 3.38105 3.37205 3.32137 3.3543 3.3684 3.36208 3.34734 3.3104 3.37484 3.43403 3.38237
8.3 3.62248 3.30869 3.28835 3.32871 3.27764 3.30114 3.29341 3.3512 3.32016 3.28462 3.2766 3.26453 3.21053 3.32336 3.34601 3.31348 3.3792 3.26021 3.29136 3.2742 3.27216 3.26482 3.2755 3.32094 3.3093 3.33551 3.24913 3.28265 3.28177 3.31534
8.6 3.58617 3.21873 3.2733 3.21274 3.17171 3.16662 3.19874 3.26087 3.29151 3.17498 3.1884 3.25532 3.1975 3.242 3.25597 3.20793 3.30448 3.21819 3.34083 3.25451 3.14898 3.18503 3.23262 3.32897 3.23854 3.27766 3.16893 3.20801 3.2898 3.2349
8.9 3.43623 3.15905 3.11667 3.14648 3.11537 3.16708 3.14952 3.2 3.04037 3.07785 3.15771 3.11619 3.11114 3.11884 3.10015 3.15253 3.17505 3.16122 3.08913 3.14357 3.11197 3.09075 3.19495 3.10932 3.19732 3.14597 3.1193 3.14782 3.1837 3.18811
9.2 3.46015 3.05505 3.07794 3.1187 3.02771 3.09084 3.03216 3.11236 3.04849 3.05797 3.04597 3.03924 3.033 3.05385 3.0408 3.07425 3.11106 3.03258 3.09133 3.074 3.05243 3.0271 3.06344 3.09788 3.08419 3.07578 3.05194 3.06095 3.06521 3.11215
9.5 3.29945 2.96041 2.96117 2.97438 2.95636 3.01112 2.9679 3.00692 2.96658 2.96267 2.91334 2.9559 2.94876 2.97156 2.98093 2.92955 3.03175 2.92353 2.98136 3.00546 2.95265 2.94186 2.96531 3.01995 2.98868 2.98183 2.92689 2.98426 2.97349 2.96312
9.8 3.15824 2.84245 2.79456 2.83798 2.76541 2.808 2.82218 2.83935 2.8109 2.80356 2.79316 2.80365 2.7746 2.77087 2.81201 2.81175 2.82946 2.79531 2.81123 2.82541 2.78307 2.75723 2.84705 2.83774 2.8432 2.828 2.79441 2.81847 2.78476 2.82732
10.1 2.80481 2.5203 2.54517 2.55101 2.50609 2.50224 2.50786 2.56779 2.54312 2.54181 2.52729 2.51149 2.5062 2.56386 2.58236 2.52897 2.55294 2.48851 2.55474 2.55257 2.52727 2.47915 2.56407 2.54199 2.52891 2.56213 2.5054 2.55627 2.49848 2.53831
10.4 2.54669 2.34128 2.36394 2.34232 2.30911 2.32933 2.32349 2.33967 2.33034 2.33505 2.32356 2.30703 2.28731 2.35629 2.33639 2.29852 2.39958 2.32003 2.33674 2.29031 2.31533 2.2808 2.38262 2.34934 2.34013 2.33864 2.30579 2.34714 2.35895 2.33813
10.7 2.42465 2.23201 2.20429 2.20653 2.17123 2.20187 2.17271 2.27872 2.20569 2.19139 2.22932 2.16748 2.17944 2.21999 2.20238 2.21497 2.2426 2.14369 2.21171 2.20462 2.21068 2.13446 2.20434 2.22227 2.21204 2.2142 2.16337 2.205 2.21354 2.19687
11 2.3263 2.14026 2.131 2.12439 2.08693 2.12281 2.08565 2.14795 2.12544 2.11574 2.12419 2.09589 2.102 2.09555 2.14712 2.11073 2.16423 2.10031 2.13351 2.09829 2.09175 2.11084 2.15 2.13689 2.12411 2.14471 2.10041 2.13066 2.09293 2.11686
11.3 2.22688 2.05407 2.08806 2.08851 2.04888 2.09646 2.04404 2.11309 2.07447 2.06427 2.06294 2.05544 2.02094 2.07259 2.10008 2.04077 2.11904 2.08809 2.06962 2.09353 2.0541 2.04174 2.11206 2.08466 2.08154 2.0661 2.03748 2.08287 2.08225 2.12228
11.6 2.21197 2.04575 2.05206 2.06613 2.02706 2.05041 2.00823 2.06087 2.04363 2.05485 2.04199 1.99402 1.9937 2.04908 2.04216 2.01845 2.04902 2.02822 2.06847 2.02401 2.02776 1.9999 2.04597 2.05687 2.07253 2.02366 1.99725 2.03066 2.03696 2.04844
11.9 2.15265 1.97594 2.01466 1.99912 1.96546 2.02845 1.99304 2.00897 1.99472 1.99314 2.00082 1.96572 1.98924 2.00038 1.9756 1.9938 2.02236 2.00386 1.99269 1.99141 1.98006 1.98238 1.99291 2.00004 2.01844 2.02834 1.95358 2.0007 1.967 2.02148
12.2 2.12416 1.95585 1.94947 1.96042 1.92837 1.94526 1.94562 1.94744 1.95846 1.95743 1.95652 1.94685 1.9456 1.93251 1.93714 1.93443 1.98179 1.92383 1.96345 1.953 1.92577 1.90036 1.96617 1.959 1.93105 1.96907 1.91546 1.94099 1.94381 1.96342
12.5 2.07816 1.90503 1.91523 1.89979 1.85871 1.86914 1.88809 1.90957 1.87355 1.88808 1.89043 1.86518 1.87684 1.91596 1.88709 1.89498 1.93824 1.8963 1.89767 1.91376 1.86985 1.85151 1.89834 1.91699 1.8842 1.90938 1.89986 1.90174 1.87508 1.91262
12.8 1.99021 1.83095 1.82414 1.81499 1.7975 1.79685 1.82925 1.84091 1.80544 1.81724 1.82913 1.80838 1.82493 1.79562 1.8344 1.79896 1.85521 1.78779 1.82541 1.82633 1.79218 1.77894 1.83177 1.82816 1.82649 1.84434 1.82634 1.83798 1.78079 1.83219
13.1 1.89627 1.72387 1.75063 1.7428 1.73485 1.75493 1.77348 1.78741 1.76152 1.73751 1.74559 1.74915 1.73632 1.76051 1.75223 1.74014 1.77532 1.7523 1.77581 1.78493 1.73375 1.71921 1.75426 1.76554 1.74654 1.754 1.73896 1.75849 1.75003 1.76605
13.4 1.81388 1.69515 1.70419 1.69803 1.67864 1.6869 1.70767 1.71284 1.67888 1.71739 1.67587 1.69059 1.69113 1.71331 1.71706 1.67536 1.72366 1.69869 1.67672 1.68361 1.68337 1.65255 1.70927 1.71309 1.72011 1.7134 1.65231 1.71638 1.67621 1.72313
13.7 1.80339 1.64683 1.64445 1.67881 1.61079 1.64034 1.63234 1.69425 1.65451 1.63737 1.62984 1.64297 1.61992 1.65356 1.66746 1.64609 1.66996 1.61392 1.68233 1.65048 1.65862 1.63212 1.63717 1.62767 1.66937 1.6685 1.6181 1.64944 1.65049 1.65409
14 1.74956 1.61847 1.61578 1.58719 1.56896 1.61662 1.61172 1.62819 1.62209 1.60982 1.57335 1.57451 1.59402 1.59626 1.60968 1.62157 1.62745 1.58089 1.62074 1.58669 1.59365 1.58448 1.62008 1.60012 1.62135 1.61464 1.59066 1.61241 1.60607 1.65084
14.3 1.70752 1.56665 1.58333 1.57636 1.52665 1.57897 1.58477 1.61496 1.58285 1.5802 1.57354 1.55063 1.54123 1.59488 1.60524 1.57054 1.5919 1.5503 1.59203 1.57525 1.58174 1.55417 1.58725 1.54179 1.54811 1.57747 1.56133 1.58021 1.59994 1.59564
14.6 1.68387 1.55593 1.54787 1.55824 1.52411 1.54087 1.55712 1.54335 1.53566 1.54706 1.54706 1.52458 1.51921 1.52828 1.54337 1.5344 1.55612 1.53116 1.55077 1.5495 1.5254 1.52771 1.57274 1.5502 1.5652 1.53824 1.50411 1.5449 1.56533 1.56721
14.9 1.6198 1.50629 1.52162 1.54101 1.50774 1.49393 1.50173 1.54346 1.50878 1.50996 1.50953 1.50639 1.48979 1.53362 1.51239 1.48406 1.55369 1.47861 1.50415 1.51144 1.50769 1.50114 1.53581 1.51779 1.49974 1.50097 1.47754 1.48953 1.51715 1.49481
15.2 1.58578 1.47509 1.47854 1.46876 1.47069 1.48034 1.45343 1.51433 1.49156 1.4783 1.48006 1.44596 1.45897 1.47081 1.48732 1.44612 1.47145 1.46942 1.47375 1.47782 1.44926 1.46387 1.47587 1.47553 1.46055 1.47139 1.44114 1.46057 1.46248 1.46662
15.5 1.55068 1.43253 1.4306 1.44168 1.40758 1.4286 1.43561 1.44112 1.4289 1.42327 1.40301 1.3957 1.42139 1.41131 1.43018 1.41747 1.45326 1.45084 1.45736 1.40772 1.42899 1.40157 1.45708 1.42517 1.42221 1.44738 1.39662 1.41977 1.42017 1.44575
15.8 1.50503 1.38379 1.39918 1.40297 1.385 1.39096 1.40519 1.3921 1.37768 1.40766 1.37564 1.38686 1.37545 1.39519 1.38205 1.3549 1.39951 1.36864 1.41753 1.38239 1.36224 1.34743 1.38669 1.37016 1.39539 1.3964 1.37908 1.39571 1.36979 1.39261
16.1 1.4549 1.35618 1.36151 1.34283 1.3325 1.33621 1.35697 1.36273 1.35431 1.34141 1.34148 1.34258 1.32625 1.35532 1.34174 1.33361 1.3704 1.34609 1.35878 1.35557 1.35333 1.31998 1.37008 1.36228 1.3871 1.36079 1.31685 1.34428 1.32896 1.3704
16.4 1.37757 1.32949 1.27058 1.29051 1.29833 1.27713 1.30881 1.29021 1.27767 1.28534 1.27734 1.27698 1.27726 1.29245 1.27398 1.26962 1.29017 1.27278 1.271 1.28197 1.261 1.26223 1.27032 1.28488 1.28575 1.26617 1.30333 1.27485 1.26639 1.28561
16.7 1.40215 1.29032 1.28079 1.28773 1.26719 1.28085 1.28441 1.29721 1.28504 1.3 1.26018 1.29814 1.27361 1.28366 1.28363 1.27393 1.29266 1.28555 1.27643 1.29949 1.27109 1.25145 1.29243 1.27419 1.30745 1.26757 1.29475 1.2738 1.27913 1.27058
17 1.32926 1.29352 1.24786 1.24791 1.26595 1.24651 1.26252 1.2323 1.24065 1.24578 1.22824 1.23433 1.26181 1.25332 1.23689 1.23455 1.26682 1.24342 1.21292 1.23463 1.21668 1.22307 1.254 1.23506 1.22768 1.22836 1.25909 1.22514 1.23332 1.24687
17.3 1.37827 1.27402 1.25686 1.26897 1.2646 1.24194 1.2677 1.26711 1.26671 1.26168 1.25129 1.26988 1.25048 1.26456 1.24059 1.26068 1.26601 1.26086 1.24875 1.26812 1.25824 1.25414 1.25751 1.26762 1.26072 1.27797 1.26277 1.25494 1.25595 1.26479
17.6 1.34636 1.25621 1.2696 1.26101 1.22829 1.24357 1.2485 1.25398 1.2635 1.24804 1.24374 1.24996 1.24051 1.26671 1.25338 1.26677 1.25388 1.24634 1.2682 1.24331 1.2393 1.24134 1.2458 1.26124 1.2448 1.25911 1.25935 1.26122 1.24556 1.21595
17.9 1.32022 1.25849 1.23618 1.25373 1.25923 1.2426 1.27579 1.25714 1.24777 1.25338 1.22683 1.24414 1.23164 1.26079 1.25285 1.24108 1.26044 1.23344 1.25283 1.24794 1.23593 1.20597 1.24872 1.25239 1.2372 1.23874 1.2266 1.2296 1.23783 1.25117
18.2 1.30473 1.23424 1.24885 1.23642 1.23494 1.23613 1.24191 1.23009 1.23867 1.23853 1.21389 1.24579 1.2194 1.23981 1.22392 1.22486 1.22676 1.23808 1.23101 1.24342 1.22461 1.21339 1.22323 1.24452 1.25698 1.23658 1.23072 1.21561 1.219 1.21996
18.5 1.30111 1.23044 1.23787 1.23287 1.22253 1.23209 1.21363 1.24243 1.22841 1.23595 1.2234 1.23474 1.21919 1.24419 1.2375 1.22268 1.23668 1.21365 1.23485 1.21633 1.22916 1.2037 1.22883 1.23123 1.20857 1.21665 1.21551 1.22682 1.20774 1.23432
18.8 1.29853 1.23463 1.21564 1.23021 1.23296 1.21466 1.22544 1.24641 1.22943 1.22543 1.21634 1.21143 1.19174 1.23157 1.20442 1.21445 1.23623 1.22333 1.22361 1.22255 1.22635 1.1929 1.23359 1.23478 1.22673 1.21896 1.22521 1.22936 1.19703 1.22452
19.1 1.28224 1.22973 1.21907 1.2193 1.19459 1.2066 1.21225 1.20901 1.22245 1.22825 1.19266 1.19827 1.21643 1.22514 1.20191 1.21061 1.21647 1.20527 1.2059 1.22775 1.20655 1.18185 1.20377 1.20701 1.20459 1.19996 1.21557 1.21982 1.20098 1.20727
19.4 1.28376 1.20955 1.21277 1.2261 1.20056 1.20666 1.19627 1.22048 1.23192 1.1977 1.19161 1.21069 1.21464 1.20729 1.19599 1.1974 1.2169 1.18994 1.21086 1.21629 1.19206 1.17541 1.21371 1.1974 1.21169 1.20737 1.21761 1.21109 1.17899 1.19981
19.7 1.26955 1.18761 1.20254 1.1868 1.18828 1.20277 1.18471 1.19748 1.21454 1.2071 1.18297 1.21095 1.18499 1.19999 1.20465 1.17667 1.20553 1.20601 1.19225 1.20158 1.20442 1.17829 1.19471 1.1949 1.19076 1.18144 1.19309 1.18371 1.16802 1.18831
20 1.23456 1.21309 1.18433 1.20205 1.18179 1.1876 1.17374 1.19169 1.18363 1.20548 1.17609 1.19561 1.17636 1.19849 1.20138 1.16906 1.2075 1.17877 1.17038 1.19737 1.1991 1.1705 1.20452 1.18468 1.18281 1.21194 1.17618 1.18904 1.16668 1.17921
20.3 1.23909 1.20704 1.19433 1.18089 1.16906 1.17206 1.174 1.19471 1.19354 1.19606 1.16275 1.17815 1.1611 1.19935 1.18203 1.16306 1.19482 1.17476 1.19501 1.15833 1.15696 1.1672 1.18636 1.18307 1.18024 1.16988 1.17999 1.18896 1.17973 1.16545
20.6 1.24312 1.18671 1.17109 1.18842 1.175 1.15121 1.17446 1.17953 1.17202 1.17919 1.15853 1.1685 1.16211 1.18459 1.18173 1.14442 1.19052 1.16305 1.16286 1.16204 1.16736 1.15433 1.17912 1.18234 1.18043 1.14255 1.17604 1.17551 1.16934 1.17763
20.9 1.23366 1.17711 1.16819 1.18285 1.16369 1.15162 1.17975 1.16761 1.17618 1.16605 1.15765 1.15326 1.16146 1.18218 1.17107 1.15998 1.17865 1.17198 1.15567 1.16697 1.16796 1.15109 1.16683 1.16738 1.17421 1.16943 1.16515 1.15739 1.1584 1.16243
21.2 1.22419 1.17739 1.17249 1.17578 1.1274 1.14203 1.1629 1.15889 1.17771 1.16798 1.15492 1.15738 1.14937 1.1578 1.13858 1.14416 1.1621 1.16542 1.15426 1.15827 1.16023 1.12474 1.15969 1.16862 1.15452 1.14807 1.15026 1.12835 1.14974 1.13151
21.5 1.21257 1.15958 1.13841 1.15393 1.13783 1.13246 1.14675 1.15603 1.16865 1.15292 1.15042 1.14411 1.13658 1.16309 1.15642 1.12796 1.1586 1.15208 1.1511 1.15012 1.15325 1.1154 1.14852 1.15489 1.15449 1.1257 1.13131 1.13 1.13215 1.134
21.8 1.20022 1.17123 1.15283 1.1553 1.10697 1.13676 1.12619 1.14941 1.15467 1.14358 1.13596 1.132 1.138 1.14775 1.14518 1.12777 1.14805 1.11127 1.13691 1.14279 1.1475 1.10179 1.14347 1.14926 1.14416 1.14771 1.12674 1.13406 1.13109 1.14027
22.1 1.20033 1.12742 1.12519 1.12883 1.13121 1.13207 1.14588 1.13322 1.12371 1.13454 1.12766 1.12797 1.11146 1.11534 1.12961 1.1297 1.15949 1.12862 1.14782 1.14588 1.13038 1.11799 1.15323 1.1524 1.14009 1.12303 1.15052 1.13623 1.14866 1.13996
22.4 1.20091 1.15106 1.14037 1.13464 1.14242 1.11671 1.13586 1.12815 1.1225 1.12009 1.14217 1.12534 1.12147 1.14068 1.12496 1.11391 1.14996 1.11651 1.12713 1.12153 1.10919 1.12604 1.14371 1.13325 1.12585 1.12898 1.12249 1.11955 1.10907 1.13293
22.7 1.19328 1.11879 1.11541 1.12949 1.13446 1.12084 1.13788 1.12525 1.13696 1.13629 1.12197 1.10515 1.11364 1.12134 1.09982 1.11831 1.10563 1.11417 1.10043 1.13267 1.11082 1.09737 1.13182 1.11967 1.12848 1.11849 1.14146 1.10953 1.1146 1.12973
23 1.17864 1.12358 1.11873 1.10002 1.12513 1.11001 1.1137 1.12848 1.12198 1.12327 1.10723 1.1046 1.09936 1.10316 1.11196 1.11024 1.13449 1.09683 1.11275 1.13095 1.11138 1.07416 1.11571 1.11349 1.13169 1.12113 1.10348 1.11153 1.08932 1.09989
23.3 1.18958 1.11566 1.11211 1.12007 1.09522 1.12014 1.12034 1.12433 1.11988 1.09582 1.1256 1.1176 1.11178 1.12233 1.1158 1.10821 1.11841 1.13151 1.11697 1.12029 1.10878 1.11717 1.11856 1.12335 1.1161 1.11802 1.12183 1.13038 1.10507 1.09106
23.6 1.17593 1.11888 1.10623 1.117 1.12463 1.10469 1.12234 1.11522 1.12906 1.11538 1.09374 1.10498 1.09421 1.11433 1.10804 1.11356 1.11574 1.10487 1.11161 1.12354 1.11073 1.10941 1.1181 1.11318 1.11754 1.10135 1.09274 1.09364 1.08508 1.10618
23.9 1.16847 1.11643 1.09146 1.1101 1.10555 1.09668 1.11293 1.09249 1.10766 1.11878 1.10868 1.09582 1.09429 1.11857 1.0963 1.0821 1.1203 1.10887 1.09301 1.1178 1.10523 1.08469 1.10945 1.1026 1.10166 1.11682 1.10059 1.08218 1.09405 1.09487
24.2 1.15955 1.12193 1.11345 1.11322 1.11553 1.09852 1.10979 1.11343 1.09776 1.11985 1.09557 1.10559 1.09677 1.10396 1.10669 1.09676 1.11404 1.11037 1.11455 1.09437 1.10037 1.08353 1.1156 1.11244 1.11384 1.11872 1.09015 1.08065 1.08975 1.08258
24.5 1.15862 1.10013 1.07101 1.09007 1.09927 1.08907 1.10086 1.10234 1.09786 1.09577 1.0875 1.09008 1.0877 1.10019 1.08908 1.10091 1.09928 1.08925 1.09582 1.10991 1.09613 1.09116 1.09458 1.09711 1.09253 1.08869 1.09436 1.08901 1.09355 1.09594
24.8 1.1555 1.10689 1.08516 1.10458 1.10136 1.0779 1.09385 1.09194 1.11254 1.08103 1.09967 1.07932 1.08759 1.10057 1.08953 1.09013 1.11256 1.10289 1.09934 1.09501 1.08134 1.08185 1.0922 1.08947 1.09902 1.08171 1.10211 1.09317 1.07989 1.09605
25.1 1.14692 1.1083 1.09576 1.1015 1.09101 1.09211 1.09133 1.08046 1.08827 1.0873 1.08628 1.08949 1.09007 1.10384 1.09006 1.0811 1.10734 1.086 1.08322 1.08291 1.08879 1.08205 1.09785 1.10259 1.08395 1.07193 1.08496 1.08714 1.06388 1.07917
25.4 1.14523 1.09529 1.08813 1.08184 1.08599 1.07246 1.07679 1.10643 1.10098 1.06063 1.08318 1.07144 1.08196 1.091 1.08003 1.08408 1.08813 1.0695 1.07817 1.09884 1.08834 1.0609 1.08494 1.08044 1.09007 1.07875 1.07512 1.07485 1.05578 1.08725
25.7 1.14789 1.094 1.08632 1.09308 1.09501 1.08279 1.08156 1.09164 1.07944 1.06821 1.06387 1.06764 1.0889 1.09273 1.08139 1.07796 1.08776 1.07557 1.07752 1.08072 1.08989 1.07382 1.08598 1.096 1.0795 1.07968 1.08572 1.08401 1.07625 1.06059
26 1.14053 1.08936 1.07692 1.08575 1.09513 1.08287 1.07947 1.10332 1.08463 1.07085 1.0822 1.06037 1.05501 1.07052 1.08801 1.07611 1.08312 1.08513 1.07288 1.08001 1.0963 1.08239 1.07392 1.08817 1.07585 1.08132 1.07027 1.0829 1.06855 1.06645
26.3 1.13599 1.07939 1.06337 1.07312 1.07316 1.09589 1.0599 1.07428 1.06813 1.07897 1.05902 1.05945 1.07542 1.07225 1.06639 1.07229 1.08358 1.06497 1.06719 1.08374 1.06775 1.05966 1.08213 1.07524 1.07382 1.0777 1.0631 1.05498 1.05188 1.06836
26.6 1.12599 1.06699 1.06943 1.07302 1.06667 1.06676 1.05186 1.06824 1.06291 1.07397 1.05753 1.04702 1.05131 1.04379 1.05764 1.06071 1.06418 1.06112 1.05614 1.04789 1.06839 1.06795 1.0743 1.07102 1.07434 1.07285 1.0672 1.07081 1.06151 1.05291
26.9 1.11154 1.05974 1.05412 1.05697 1.06089 1.05234 1.04211 1.05011 1.07019 1.0513 1.04083 1.06184 1.06882 1.06285 1.0467 1.05192 1.06585 1.05671 1.06078 1.04551 1.05372 1.03557 1.05648 1.0705 1.06196 1.06636 1.05981 1.05468 1.04326 1.05619
27.2 1.10964 1.07012 1.05476 1.05386 1.03931 1.05639 1.03891 1.07788 1.05502 1.06601 1.05763 1.04789 1.04192 1.06016 1.05024 1.05509 1.05842 1.05214 1.05848 1.05985 1.06443 1.04914 1.04817 1.06594 1.03656 1.06106 1.0521 1.04608 1.05174 1.03928
27.5 1.09095 1.06554 1.05282 1.04941 1.04857 1.05765 1.04158 1.05272 1.05556 1.04112 1.04869 1.05156 1.04814 1.04861 1.03939 1.04533 1.05776 1.04806 1.06001 1.03596 1.05255 1.05278 1.04386 1.04823 1.05366 1.06081 1.04806 1.04341 1.04263 1.05446
27.8 1.07407 1.03689 1.0316 1.0443 1.04412 1.02858 1.03898 1.04356 1.05023 1.03899 1.03338 1.0306 1.03668 1.04011 1.0276 1.03914 1.03849 1.02329 1.02799 1.04652 1.0435 1.03228 1.06182 1.04178 1.03826 1.03062 1.03491 1.03756 1.02641 1.03871
28.1 1.0694 1.02491 1.01117 1.02648 1.0212 1.00749 1.02546 1.02089 1.03541 1.04093 1.01593 1.02088 1.0331 1.04131 1.02803 1.02863 1.04176 1.02504 1.0285 1.01898 1.03469 1.01284 1.03061 1.02734 1.03029 1.03147 1.01432 1.01405 1.00835 1.01937
28.4 1.06657 1.01783 1.02177 1.02286 1.0185 1.01982 1.01482 1.02374 1.03243 1.01986 1.00784 1.00735 1.01979 1.01753 1.0186 1.02818 1.01163 1.01697 1.00255 1.02108 1.03026 1.01537 1.02689 1.02159 1.02924 1.01474 1.00704 1.0051 1.00482 1.02435
28.7 1.04832 1.00225 1.0098 1.00832 1.00825 1.00056 0.997282 0.99521 1.0017 1.01136 0.998813 0.988428 1.00761 0.998708 0.99651 1.01577 1.00878 0.996781 0.99725 0.999449 0.99811 0.988464 1.01996 1.0087 1.00574 0.982677 0.987925 0.992452 0.989628 1.00213
29 1.03899 1.00735 0.990265 1.00757 0.994755 0.992336 0.99937 1.00347 0.986643 1.00544 0.991236 0.97903 1.00102 0.996631 0.995855 1.00438 0.998882 0.991012 1.00455 0.993438 0.998333 0.979129 0.984418 0.988975 0.992954 0.996786 0.994926 0.997878 0.974409 0.979549
29.3 1.01285 0.964798 0.973799 0.992999 0.972169 0.985813 0.970554 0.988414 0.97933 0.979968 0.970946 0.958193 0.970323 0.978723 0.984989 0.983971 0.986269 0.96779 0.982517 0.979385 0.955678 0.97996 0.980346 0.980511 0.973774 0.982024 0.972074 0.973534 0.970446 0.976901
29.6 1.0055 0.977114 0.978246 0.958903 0.965818 0.973458 0.963033 0.978528 0.960891 0.968186 0.956773 0.961561 0.948229 0.952728 0.966305 0.956001 0.965919 0.970689 0.96665 0.971201 0.96736 0.958662 0.965555 0.978804 0.954553 0.952376 0.978633 0.963335 0.95768 0.976305
29.9 0.983967 0.959869 0.947605 0.957416 0.935056 0.936875 0.936113 0.945971 0.94968 0.953968 0.941587 0.940256 0.95141 0.95429 0.95973 0.953581 0.951399 0.942741 0.949634 0.952729 0.954812 0.941314 0.959377 0.945981 0.951718 0.946041 0.95083 0.953303 0.946159 0.947529
30.2 0.974442 0.95718 0.951134 0.949812 0.960685 0.933629 0.947684 0.942096 0.948842 0.937487 0.927937 0.920407 0.945217 0.941591 0.949851 0.951005 0.938509 0.941139 0.938441 0.948158 0.9493 0.919513 0.941994 0.944095 0.946526 0.926505 0.928703 0.936522 0.917424 0.931749
30.5 0.972919 0.935946 0.920986 0.942174 0.922409 0.926108 0.932018 0.928526 0.939917 0.940958 0.907919 0.901921 0.922295 0.928372 0.926997 0.926301 0.931344 0.910761 0.914335 0.91939 0.939912 0.919737 0.917744 0.925641 0.933949 0.919237 0.9116 0.919273 0.923307 0.924785
30.8 0.934988 0.925801 0.888325 0.913414 0.895362 0.901449 0.906141 0.90536 0.923902 0.90675 0.914056 0.901564 0.909784 0.903433 0.89538 0.911691 0.909512 0.898448 0.913285 0.896061 0.907561 0.901535 0.902299 0.909131 0.913509 0.901347 0.903642 0.891288 0.896701 0.909575
31.1 0.923653 0.89885 0.895584 0.904086 0.883694 0.894291 0.905984 0.890797 0.896821 0.896222 0.892299 0.888938 0.891 0.90112 0.89808 0.902167 0.899651 0.891192 0.894276 0.898257 0.908096 0.886425 0.903444 0.900401 0.895026 0.884611 0.900854 0.906612 0.879604 0.897617
31.4 0.909449 0.886173 0.888112 0.889396 0.879982 0.880023 0.87157 0.885896 0.891317 0.876335 0.859761 0.86693 0.873848 0.880222 0.881014 0.88328 0.883541 0.872049 0.891846 0.855745 0.876132 0.873475 0.87584 0.884963 0.86564 0.875409 0.881118 0.865843 0.870931 0.872716
31.7 0.895695 0.863622 0.861193 0.863054 0.856528 0.857149 0.850884 0.873062 0.864083 0.858136 0.853441 0.854354 0.849182 0.866933 0.861658 0.859597 0.881325 0.855369 0.853771 0.858816 0.855594 0.8449 0.863316 0.865404 0.868462 0.846922 0.865269 0.864699 0.839246 0.85193
32 0.886866 0.849423 0.850153 0.846747 0.838345 0.845077 0.853012 0.847045 0.847348 0.847738 0.840654 0.842762 0.846673 0.845919 0.864191 0.855332 0.834483 0.851015 0.841999 0.840103 0.839303 0.842214 0.848602 0.84811 0.854376 0.842382 0.842854 0.848365 0.828766 0.841815
32.3 0.858774 0.830881 0.835897 0.833117 0.827764 0.815114 0.817473 0.826623 0.824677 0.834022 0.816049 0.821648 0.826091 0.828435 0.825828 0.826207 0.841066 0.826478 0.824897 0.830594 0.83755 0.818708 0.829281 0.829722 0.830645 0.823444 0.831602 0.820933 0.811545 0.823593
32.6 0.834789 0.824559 0.818715 0.820911 0.799587 0.797546 0.816028 0.811029 0.815845 0.803604 0.810961 0.801198 0.804564 0.819202 0.808671 0.812603 0.811312 0.818657 0.820925 0.811442 0.801181 0.799315 0.794095 0.812473 0.792454 0.814694 0.806746 0.8189 0.81143 0.810468
32.9 0.816668 0.799926 0.807217 0.791894 0.789232 0.797938 0.782359 0.796649 0.804078 0.789937 0.789121 0.793138 0.787809 0.796961 0.794768 0.802422 0.799398 0.786352 0.788689 0.79789 0.796932 0.789865 0.781227 0.804602 0.794301 0.792132 0.800621 0.79285 0.783068 0.779515
33.2 0.80307 0.785542 0.782568 0.786108 0.777939 0.785451 0.774999 0.790259 0.787041 0.7851 0.771651 0.779136 0.781517 0.787011 0.788656 0.782428 0.794726 0.781167 0.783 0.782846 0.788471 0.782353 0.778002 0.785761 0.787118 0.774437 0.78753 0.773384 0.773784 0.782719
33.5 0.793602 0.777606 0.771365 0.775 0.76676 0.772176 0.769796 0.774012 0.776667 0.775501 0.76743 0.779274 0.774537 0.776208 0.775334 0.777738 0.783791 0.784195 0.769486 0.773738 0.767593 0.772762 0.77151 0.777711 0.767979 0.769339 0.773578 0.768336 0.768721 0.771179
33.8 0.785636 0.767189 0.770528 0.764546 0.748754 0.758685 0.758151 0.763231 0.757324 0.761688 0.761467 0.768682 0.759357 0.764458 0.755635 0.767896 0.767084 0.754236 0.762085 0.759803 0.755829 0.758929 0.756239 0.760342 0.761529 0.761609 0.759458 0.761358 0.762301 0.755196
34.1 0.774937 0.756859 0.752458 0.746426 0.742038 0.743631 0.751006 0.74815 0.743677 0.745033 0.738183 0.747395 0.747686 0.748069 0.742613 0.748158 0.747775 0.75229 0.737656 0.749407 0.748233 0.745238 0.75144 0.750142 0.746182 0.746293 0.749323 0.747742 0.745379 0.752173
34.4 0.755142 0.737728 0.73672 0.740241 0.73031 0.732428 0.736551 0.739501 0.736664 0.732498 0.73452 0.73379 0.733974 0.736508 0.733153 0.732591 0.736079 0.733188 0.738095 0.732434 0.735246 0.734744 0.735515 0.742073 0.735459 0.736787 0.737507 0.731514 0.729573 0.727005
34.7 0.744959 0.732294 0.724321 0.721178 0.717138 0.724784 0.720482 0.719745 0.722407 0.724006 0.724561 0.717132 0.721451 0.723269 0.726482 0.724053 0.727144 0.7259 0.719556 0.714814 0.721438 0.719523 0.725295 0.725947 0.723935 0.715938 0.719957 0.723724 0.716274 0.719339
35 0.728817 0.71521 0.706021 0.70965 0.702778 0.708361 0.700784 0.705337 0.708959 0.711809 0.706277 0.710091 0.704394 0.71331 0.707954 0.70704 0.711679 0.701989 0.703621 0.704785 0.712163 0.702112 0.708986 0.706922 0.701376 0.709509 0.70559 0.702862 0.705749 0.709022
35.3 0.710821 0.711569 0.694854 0.697513 0.697868 0.695701 0.694981 0.699975 0.70159 0.697993 0.697775 0.69891 0.697902 0.697574 0.695288 0.700323 0.706465 0.696568 0.701119 0.695743 0.692113 0.698716 0.697879 0.702868 0.701184 0.694969 0.699582 0.700532 0.692573 0.699539
35.6 0.692374 0.693618 0.687916 0.683902 0.674404 0.681049 0.678039 0.687239 0.676895 0.688106 0.685461 0.682219 0.686616 0.691212 0.688473 0.693825 0.683126 0.689923 0.684375 0.682402 0.684503 0.675713 0.682884 0.685389 0.683803 0.683627 0.683232 0.680667 0.679776 0.68024
35.9 0.678491 0.676417 0.669193 0.6699 0.663972 0.665183 0.670846 0.673615 0.668271 0.670816 0.660834 0.67311 0.674926 0.668958 0.667338 0.666043 0.677155 0.669437 0.668249 0.667938 0.675416 0.665864 0.669079 0.670871 0.668957 0.673568 0.666224 0.663847 0.661204 0.664201
36.2 0.666905 0.660689 0.659894 0.65922 0.649649 0.657768 0.661207 0.659978 0.660398 0.661666 0.652533 0.660309 0.660046 0.662962 0.655457 0.663669 0.65891 0.661901 0.66236 0.652082 0.656309 0.648505 0.651893 0.65619 0.657288 0.65323 0.654817 0.65384 0.649859 0.658219
36.5 0.649354 0.648569 0.649674 0.648501 0.63981 0.644492 0.637687 0.654842 0.646147 0.644908 0.639646 0.640891 0.648483 0.642104 0.639814 0.649011 0.642962 0.645639 0.646161 0.645418 0.641235 0.636837 0.636304 0.64585 0.64841 0.641427 0.639329 0.640918 0.644526 0.639319
36.8 0.636031 0.636526 0.636237 0.635096 0.633632 0.635876 0.631441 0.634898 0.633542 0.634739 0.631243 0.632334 0.634072 0.633595 0.632894 0.635531 0.639152 0.631491 0.633755 0.631118 0.627963 0.632167 0.627239 0.63231 0.636982 0.635947 0.635778 0.624372 0.627506 0.630732
37.1 0.631911 0.628877 0.626208 0.624636 0.624078 0.621171 0.616653 0.619447 0.621755 0.622813 0.61633 0.620903 0.623099 0.626613 0.625515 0.620389 0.624375 0.624637 0.615566 0.623046 0.618751 0.622305 0.6223 0.622152 0.62339 0.619015 0.621465 0.617524 0.616446 0.618127
37.4 0.612424 0.606954 0.609623 0.616661 0.606859 0.607418 0.600778 0.601137 0.60412 0.605932 0.60295 0.605942 0.608175 0.614206 0.607984 0.607148 0.610634 0.607256 0.603812 0.601459 0.604306 0.606502 0.604059 0.609673 0.61205 0.601992 0.605384 0.612296 0.605343 0.604703
37.7 0.60261 0.592436 0.603565 0.592297 0.592623 0.591836 0.591352 0.595614 0.591719 0.595628 0.588185 0.597187 0.591499 0.593663 0.593532 0.594637 0.594331 0.591953 0.58865 0.596239 0.595227 0.593288 0.588222 0.602136 0.588444 0.589889 0.591261 0.591711 0.589691 0.596376
38 0.592031 0.588101 0.588151 0.587572 0.573953 0.576052 0.576359 0.582994 0.577415 0.578041 0.578386 0.581788 0.582511 0.581061 0.582912 0.579275 0.59051 0.575742 0.57812 0.582397 0.584637 0.584136 0.576562 0.581484 0.57608 0.582318 0.581473 0.578551 0.579917 0.575912
38.3 0.581699 0.576727 0.570375 0.569912 0.566531 0.571576 0.568952 0.570665 0.570746 0.572056 0.565773 0.571288 0.569301 0.573123 0.572547 0.574792 0.572266 0.572656 0.566985 0.569077 0.566581 0.566021 0.565157 0.573887 0.569575 0.5749 0.569614 0.570783 0.566779 0.570623
38.6 0.563642 0.566624 0.563694 0.561212 0.552451 0.560492 0.558437 0.56074 0.552311 0.558387 0.554636 0.557457 0.554447 0.554691 0.567053 0.563988 0.565209 0.557227 0.558806 0.559877 0.56001 0.556543 0.55261 0.557065 0.559632 0.557013 0.557398 0.564075 0.55584 0.553653
38.9 0.557063 0.550538 0.550675 0.543413 0.54483 0.549628 0.549253 0.548664 0.545468 0.552097 0.548569 0.547148 0.548654 0.542758 0.548814 0.554299 0.548289 0.547797 0.543051 0.544431 0.550378 0.548799 0.543466 0.545762 0.540941 0.550384 0.550751 0.541535 0.542767 0.548932
39.2 0.541378 0.538395 0.538729 0.531388 0.540176 0.533174 0.537857 0.541123 0.538081 0.538641 0.530938 0.535479 0.534384 0.537432 0.538234 0.540502 0.537208 0.533982 0.535765 0.531321 0.535808 0.528773 0.53436 0.538136 0.534049 0.539255 0.532935 0.538859 0.530734 0.532788
39.5 0.526312 0.527625 0.524024 0.519084 0.519652 0.52121 0.520906 0.523891 0.517513 0.524498 0.523861 0.516756 0.519752 0.523506 0.524696 0.516711 0.523053 0.524303 0.520513 0.520096 0.518858 0.520993 0.516493 0.523264 0.51942 0.516707 0.519578 0.518628 0.518885 0.523053
39.8 0.510182 0.504017 0.504598 0.50319 0.502124 0.503997 0.503011 0.507122 0.503646 0.501405 0.501071 0.508167 0.503472 0.503114 0.506086 0.508041 0.502171 0.501876 0.502197 0.506096 0.505564 0.506035 0.500902 0.502954 0.508978 0.498886 0.500887 0.503281 0.496004 0.503734
40.1 0.498074 0.490872 0.488374 0.487428 0.488446 0.487665 0.483319 0.486462 0.48744 0.48988 0.486051 0.488857 0.481342 0.484981 0.49067 0.484258 0.490006 0.490011 0.483621 0.486265 0.483813 0.489877 0.485397 0.487502 0.488137 0.488065 0.488594 0.486945 0.487272 0.488404
40.4 0.476953 0.470505 0.471854 0.46816 0.46605 0.469035 0.464258 0.474923 0.469841 0.474296 0.466985 0.467828 0.473659 0.46855 0.465644 0.475061 0.475802 0.467847 0.46675 0.473662 0.467422 0.464848 0.467494 0.473498 0.466084 0.467713 0.46904 0.470872 0.467754 0.464343
40.7 0.457583 0.452387 0.449589 0.455558 0.449709 0.452131 0.45144 0.452613 0.45355 0.453278 0.448161 0.452579 0.450829 0.446887 0.452429 0.452989 0.44897 0.451205 0.450572 0.444086 0.452133 0.453102 0.448909 0.455627 0.453029 0.451648 0.44744 0.446516 0.448989 0.4449
41 0.445964 0.43573 0.437014 0.438958 0.431421 0.434804 0.43575 0.437391 0.43632 0.438221 0.434049 0.43447 0.434292 0.436138 0.440197 0.438531 0.436806 0.438357 0.441011 0.434842 0.435365 0.437766 0.431782 0.436663 0.439977 0.438559 0.433481 0.431298 0.43576 0.433259
41.3 0.428215 0.419669 0.421261 0.418044 0.422635 0.417769 0.422449 0.421045 0.417232 0.420034 0.420701 0.422588 0.420496 0.420121 0.414722 0.421855 0.418651 0.420373 0.423255 0.425622 0.420662 0.418053 0.424449 0.417009 0.421702 0.416648 0.416491 0.423753 0.419877 0.414885
41.6 0.408216 0.403257 0.397902 0.396692 0.399744 0.407159 0.40418 0.405792 0.401418 0.401646 0.406769 0.408258 0.402853 0.404366 0.401825 0.403454 0.403856 0.401574 0.404758 0.403329 0.397284 0.40011 0.408452 0.405916 0.401609 0.407653 0.402243 0.409351 0.400477 0.400898
41.9 0.395879 0.390111 0.387502 0.386256 0.384482 0.385912 0.389616 0.387598 0.389517 0.391122 0.390114 0.389241 0.386698 0.389203 0.391363 0.384215 0.388735 0.387413 0.385208 0.385144 0.389525 0.384493 0.391076 0.385752 0.388096 0.385001 0.391434 0.390315 0.385709 0.389498
42.2 0.381197 0.379794 0.368939 0.371229 0.370012 0.371238 0.371064 0.370484 0.365728 0.372711 0.372813 0.377683 0.369373 0.378551 0.369593 0.375548 0.37467 0.378554 0.374527 0.374991 0.372288 0.374275 0.3717 0.371902 0.375406 0.375336 0.372244 0.372758 0.374926 0.372708
42.5 0.368254 0.360497 0.360575 0.359471 0.356666 0.361378 0.358569 0.353448 0.356427 0.35826 0.354896 0.357985 0.3625 0.358559 0.360824 0.356657 0.359354 0.362428 0.35625 0.357004 0.355838 0.354925 0.363958 0.359849 0.357596 0.354192 0.354347 0.356421 0.356852 0.354045
42.8 0.352017 0.343815 0.345045 0.34127 0.34162 0.335318 0.338096 0.336601 0.33907 0.340208 0.346213 0.346869 0.345088 0.344669 0.342297 0.339278 0.343573 0.343798 0.344384 0.34153 0.345244 0.347219 0.343973 0.34177 0.337425 0.342388 0.341066 0.341081 0.342092 0.341995
43.1 0.330031 0.329749 0.327819 0.331565 0.322005 0.32586 0.32273 0.325565 0.323523 0.321954 0.326016 0.328847 0.331667 0.330346 0.325416 0.3236 0.326824 0.325887 0.319338 0.326723 0.326058 0.325435 0.32954 0.330292 0.322071 0.327478 0.328143 0.32613 0.325774 0.327744
43.4 0.325231 0.317575 0.31705 0.317956 0.31324 0.313157 0.313195 0.320027 0.316335 0.314187 0.314362 0.312876 0.314303 0.315489 0.312442 0.314431 0.311301 0.312164 0.315792 0.313181 0.314177 0.318105 0.314146 0.315447 0.315003 0.317948 0.314113 0.314581 0.312379 0.309102
43.7 0.30769 0.300077 0.302278 0.302323 0.301079 0.301596 0.299889 0.299158 0.302002 0.303183 0.3005 0.304897 0.301615 0.301684 0.299565 0.301917 0.304152 0.301209 0.300843 0.302259 0.303355 0.305263 0.300311 0.301229 0.303706 0.30009 0.303494 0.296616 0.307367 0.304929
44 0.292265 0.284622 0.285647 0.287572 0.286806 0.283287 0.282531 0.284999 0.283352 0.283887 0.28471 0.286282 0.281469 0.286107 0.284813 0.286245 0.286094 0.283498 0.281272 0.285004 0.284134 0.286673 0.286322 0.2869 0.285764 0.286165 0.281796 0.284068 0.282848 0.283207
44.3 0.274806 0.272942 0.274355 0.276638 0.272268 0.274441 0.267945 0.27254 0.274069 0.275152 0.269695 0.277102 0.270695 0.27608 0.274575 0.273852 0.272653 0.275313 0.274232 0.27278 0.269369 0.274227 0.271154 0.275522 0.271434 0.274988 0.266827 0.273924 0.269362 0.27069
44.6 0.259905 0.260797 0.260018 0.261215 0.264922 0.257747 0.261251 0.260654 0.254827 0.258252 0.255872 0.261424 0.26122 0.260463 0.261805 0.257194 0.256669 0.259182 0.263308 0.258602 0.256029 0.25804 0.261358 0.264208 0.258918 0.258447 0.257663 0.263285 0.256498 0.256999
44.9 0.24383 0.238288 0.25009 0.242567 0.246171 0.244179 0.239571 0.244458 0.244061 0.250166 0.244589 0.244458 0.245608 0.246906 0.242364 0.244371 0.244358 0.243763 0.242873 0.24566 0.24584 0.244623 0.247563 0.246921 0.245831 0.242803 0.246389 0.239077 0.241117 0.244597
45.2 0.230164 0.224872 0.225677 0.226746 0.225518 0.224531 0.228114 0.229548 0.230406 0.229019 0.229285 0.223437 0.228499 0.231703 0.228114 0.230205 0.228584 0.222855 0.227222 0.228427 0.228475 0.227707 0.228244 0.22351 0.227561 0.227206 0.227486 0.22786 0.228063 0.230645
45.5 0.221802 0.216396 0.217418 0.218649 0.219114 0.217945 0.21398 0.217056 0.220044 0.216638 0.212143 0.218618 0.217532 0.213609 0.219489 0.218302 0.219241 0.216711 0.215692 0.217012 0.222073 0.219512 0.21435 0.216636 0.215101 0.215367 0.215578 0.218678 0.219331 0.218838
45.8 0.204731 0.209471 0.20128 0.202421 0.209464 0.202293 0.203019 0.199766 0.204216 0.205669 0.201051 0.207729 0.204412 0.202448 0.202317 0.202821 0.210636 0.20209 0.204824 0.19947 0.201953 0.207235 0.20156 0.207438 0.202594 0.203318 0.201861 0.202902 0.206042 0.203326
46.1 0.192209 0.18818 0.191875 0.189629 0.187581 0.192064 0.193107 0.193533 0.192334 0.193193 0.191179 0.191196 0.189121 0.191103 0.187558 0.193456 0.193561 0.186538 0.191596 0.189381 0.190423 0.191756 0.19316 0.191285 0.193274 0.191314 0.191644 0.190545 0.192538 0.188737
46.4 0.179102 0.18007 0.177645 0.18075 0.17846 0.180796 0.176534 0.179457 0.179326 0.178342 0.177352 0.176706 0.178109 0.178675 0.178726 0.181783 0.178731 0.177281 0.178299 0.176698 0.179416 0.179359 0.179061 0.177965 0.181568 0.179776 0.176287 0.179651 0.178097 0.179027
46.7 0.16484 0.169348 0.166799 0.169404 0.166792 0.167641 0.168576 0.160855 0.166278 0.16371 0.165303 0.167437 0.165171 0.164695 0.170099 0.167209 0.166621 0.166162 0.165985 0.168684 0.165907 0.166118 0.171464 0.169624 0.166524 0.167486 0.165319 0.1681 0.166596 0.166075
47 0.154853 0.153306 0.152799 0.155394 0.156619 0.153313 0.155837 0.153212 0.155522 0.154259 0.153577 0.156471 0.156887 0.157362 0.152087 0.152113 0.152243 0.151064 0.152455 0.157643 0.15032 0.156071 0.155803 0.150364 0.151689 0.152532 0.15135 0.151606 0.15324 0.153991
47.3 0.13935 0.139688 0.140676 0.139886 0.142051 0.142132 0.138484 0.138766 0.136141 0.137459 0.138853 0.140032 0.140743 0.142574 0.140591 0.143018 0.138268 0.139799 0.136795 0.138084 0.139449 0.140422 0.140063 0.141159 0.141519 0.144399 0.135301 0.140585 0.140436 0.140235
47.6 0.125494 0.128076 0.127107 0.12878 0.126546 0.125671 0.126618 0.125261 0.128811 0.126329 0.125381 0.126979 0.127458 0.125325 0.127946 0.126735 0.125516 0.125522 0.126894 0.124285 0.127504 0.125616 0.126531 0.125893 0.126378 0.125722 0.126352 0.126362 0.127985 0.127083
47.9 0.118533 0.115621 0.112597 0.11339 0.114652 0.116809 0.115037 0.112744 0.114049 0.115081 0.116971 0.115399 0.114356 0.114393 0.113897 0.113253 0.114578 0.115443 0.115047 0.116779 0.115855 0.115389 0.111576 0.114398 0.114833 0.113949 0.113537 0.11389 0.114727 0.114546
48.2 0.104508 0.104508 0.102047 0.102891 0.103589 0.104971 0.101743 0.101594 0.102586 0.09872993 0.100906 0.103154 0.103043 0.103723 0.101947 0.102932 0.100913 0.100735 0.105517 0.101724 0.100894 0.101403 0.101179 0.09946311 0.103434 0.103638 0.102888 0.101106 0.105586 0.10521
48.5 0.09276982 0.08920871 0.08781605 0.08925292 0.09021768 0.09276496 0.09348916 0.09123464 0.08841075 0.08688351 0.09222723 0.09028210 0.08956202 0.09068651 0.09471037 0.08906065 0.09265995 0.08930516 0.09262734 0.09241480 0.09094507 0.08472405 0.09322161 0.09271298 0.08727558 0.08974386 0.08986152 0.08995316 0.09145736 0.08825419
48.7 0.08392089 0.08264160 0.08486739 0.08320781 0.08099606 0.08529213 0.08435697 0.08237964 0.08140917 0.08253837 0.07958911 0.08441110 0.08371652 0.08328977 0.08410559 0.08153776 0.08330782 0.08144245 0.08332517 0.08143481 0.08144005 0.08079445 0.08545972 0.08145765 0.08492113 0.07765046 0.08145390 0.08167418 0.08129279 0.08011257