File: XRD_list.txt
# [0.0, 772.0, 1544.0, 2316.0, 3090.0, 3861.0, 4634.0, 5406.0, 6179.0, 6952.0, 7724.0, 8496.0, 9267.0, 10040.0, 10814.0, 11585.0, 12357.0, 13129.0, 13902.0, 14675.0, 15447.0, 16219.0, 16992.0, 17765.0, 18538.0, 19310.0, 20082.0, 20854.0, 21626.0, 22400.0]
0.5 3.80825 4.27797 4.4306 4.54867 4.47085 4.67461 4.6347 4.6813 4.82681 4.69007 4.72924 4.76843 4.87072 4.78567 5.06127 4.98185 5.06264 5.10382 5.18213 5.29044 5.30223 5.1862 5.31385 5.37762 5.5029 5.42787 5.45287 5.75737 5.51343 5.64386
0.8 2.12118 2.40849 2.65253 2.67623 2.68577 2.89842 2.76219 2.88907 2.75508 2.82266 2.81829 2.83028 2.92675 2.98752 2.90538 2.90286 3.08889 3.02479 3.02673 3.141 3.13957 3.11848 3.12674 3.23707 3.29612 3.28988 3.38038 3.43473 3.29697 3.45017
1.1 2.01579 2.30746 2.32136 2.35842 2.45092 2.42116 2.49839 2.53092 2.43921 2.33898 2.45456 2.43174 2.54141 2.38544 2.48085 2.52999 2.54333 2.54306 2.64325 2.60204 2.51046 2.57296 2.60212 2.61089 2.71008 2.63577 2.75621 2.77289 2.68171 2.85575
1.4 2.07801 2.3222 2.32456 2.45159 2.40174 2.47883 2.40264 2.41961 2.44922 2.41601 2.45234 2.40027 2.40734 2.39707 2.39252 2.39832 2.62811 2.52668 2.48028 2.51318 2.42828 2.53992 2.45866 2.62816 2.5385 2.56616 2.55164 2.57474 2.4599 2.542
1.7 2.41166 2.50823 2.57983 2.60825 2.76635 2.69637 2.76519 2.65897 2.60121 2.66838 2.69044 2.5732 2.56616 2.68049 2.60094 2.56664 2.77673 2.72252 2.65892 2.68667 2.57243 2.64995 2.71648 2.68849 2.79866 2.62365 2.85434 2.70336 2.6446 2.66178
2 2.98701 2.88655 2.92487 2.91013 2.95623 3.03116 3.06909 2.90686 3.0441 2.78209 2.77538 2.88012 2.94362 2.89016 2.92118 3.12216 3.05059 2.98038 3.00261 2.91619 2.92398 3.02524 2.91227 2.95279 2.98588 3.06602 2.97247 3.03547 2.98515 2.96546
2.3 3.86706 3.57532 3.76064 3.673 3.76849 3.71903 3.66218 3.79467 3.73688 3.62083 3.69749 3.57878 3.58343 3.66603 3.46478 3.74089 3.66322 3.72119 3.79908 3.85636 3.6756 3.63497 3.66679 3.63995 3.65376 3.66221 3.71137 3.76537 3.72019 3.63306
2.6 5.25014 5.00079 4.96232 5.02098 5.13776 5.29606 5.09822 5.05916 5.15062 4.76015 5.10496 4.98722 5.01011 4.98773 4.97321 5.17606 5.00179 5.12781 4.89485 5.20117 4.99457 5.09734 4.90428 5.01255 5.03937 5.03846 5.25865 5.18691 5.11243 5.15029
2.9 7.53585 6.93325 6.95525 7.12982 7.14476 7.31605 7.33837 7.04958 6.99729 7.2537 6.86862 6.81662 7.05901 7.02232 6.85978 7.07161 7.23634 7.14939 7.22564 7.16647 6.91382 7.2275 6.86462 7.02319 7.23367 7.18222 7.05103 7.32685 7.03076 7.16183
3.2 8.6394 8.17354 8.03607 8.19901 8.23372 8.44325 8.35235 8.39655 8.30371 8.31553 8.1976 7.85553 8.05651 7.89964 8.18811 8.16629 8.1926 8.33646 8.11681 8.32944 8.03377 8.20287 8.01237 8.09571 8.17429 8.39157 8.39949 8.45039 8.06681 8.2277
3.5 9.32401 8.61765 8.39626 8.70004 8.70633 9.02343 8.87883 8.66826 8.93316 8.51456 8.46305 8.50229 8.86549 8.36687 8.68529 8.83563 8.89339 8.70951 8.68413 9.11308 8.66696 8.58983 8.78875 8.68802 8.78919 8.71706 9.07465 9.15472 8.85015 8.66941
3.8 9.67774 8.81828 8.99002 9.11015 9.1335 9.19677 9.26705 9.10188 8.96802 9.01524 9.04679 9.03873 8.97222 8.92317 9.10978 9.16738 9.25541 9.28201 8.99098 9.26892 9.00164 8.99019 9.06588 9.04166 9.17072 9.19114 9.38097 9.38838 9.08919 9.27089
4.1 9.30971 8.68545 8.75465 8.7771 8.75192 9.06029 8.97296 8.9181 8.77664 8.64436 8.67337 8.72497 8.74925 8.6508 8.60568 8.86039 8.86448 8.82267 8.8806 9.0915 8.74765 8.82978 8.63583 8.78858 8.86017 8.80024 8.81704 9.10191 8.63418 8.73655
4.4 8.42607 7.96167 7.91459 8.08204 8.04632 8.20175 8.03047 7.94368 7.9886 7.88132 7.92943 7.87006 8.00415 7.82873 7.885 8.05999 8.13477 8.06366 7.96593 8.12472 7.81691 7.91074 7.90744 7.95537 8.10683 8.12841 8.19871 8.17504 7.7403 8.1178
4.7 7.81343 7.16069 7.05621 7.43212 7.1516 7.40586 7.41632 7.3043 7.24503 7.23052 7.27713 7.16535 7.30934 7.06609 7.15172 7.14501 7.29477 7.36319 7.28459 7.40739 7.05718 7.10856 7.11829 7.26662 7.28413 7.36335 7.33381 7.4456 7.10215 7.31048
5 7.13935 6.62671 6.72856 6.75645 6.78906 6.86356 6.84783 6.7289 6.78684 6.51847 6.52937 6.60876 6.74808 6.60777 6.53739 6.72253 6.95426 6.72203 6.62131 6.89327 6.58823 6.45208 6.6715 6.63797 6.75435 6.65606 6.83578 6.99549 6.53941 6.77048
5.3 6.48949 5.92316 6.17959 6.18144 6.09961 6.33492 6.31956 6.18965 6.10555 5.8787 6.15722 5.91115 6.13024 6.07958 6.01166 6.23875 6.11342 6.21803 6.16828 6.23606 5.92328 6.09101 5.97241 6.03435 6.12092 6.12942 6.17179 6.23334 5.99093 6.1739
5.6 5.71172 5.23878 5.40888 5.43774 5.39843 5.5617 5.42051 5.35108 5.30722 5.26526 5.27213 5.2228 5.4124 5.179 5.28097 5.32199 5.43742 5.45987 5.34318 5.37256 5.22788 5.32972 5.2983 5.27708 5.34695 5.42438 5.41931 5.46134 5.30465 5.39337
5.9 4.81106 4.51121 4.53802 4.73771 4.57637 4.73354 4.71355 4.62975 4.52707 4.61361 4.46402 4.39808 4.58688 4.48186 4.67936 4.62446 4.55949 4.69295 4.54765 4.76601 4.41315 4.51656 4.47804 4.52457 4.56534 4.65701 4.64481 4.67242 4.35788 4.59654
6.2 4.17237 3.96202 3.968 4.02534 3.93605 4.04279 4.08181 3.99258 4.0002 3.97949 3.90976 3.90285 3.89475 3.96487 3.97172 4.00008 3.99707 3.98675 3.9322 4.00459 3.97311 4.00955 3.97282 4.00093 4.03934 4.02971 3.99946 4.18843 3.90008 4.10671
6.5 3.87421 3.45025 3.72725 3.70614 3.60523 3.76124 3.51335 3.6121 3.64057 3.5316 3.50877 3.47719 3.50092 3.47741 3.6378 3.64564 3.60247 3.63863 3.58685 3.6409 3.60765 3.47451 3.4313 3.66842 3.70521 3.67711 3.69111 3.76829 3.62584 3.49725
6.8 3.55946 3.4406 3.3465 3.52892 3.41909 3.54008 3.49051 3.4356 3.40688 3.29242 3.33464 3.29334 3.40768 3.44071 3.36288 3.51378 3.4973 3.42232 3.38093 3.4721 3.3676 3.35979 3.37948 3.39574 3.40706 3.48192 3.51793 3.4623 3.44622 3.35916
7.1 3.54202 3.3741 3.32289 3.387 3.42176 3.36686 3.44667 3.35454 3.3251 3.25314 3.29518 3.29078 3.34139 3.37042 3.36978 3.35639 3.43382 3.47835 3.38092 3.49697 3.3076 3.3496 3.37055 3.40534 3.35543 3.3549 3.46286 3.48823 3.1924 3.3928
7.4 3.62943 3.39884 3.40391 3.34022 3.40142 3.38097 3.46317 3.47817 3.33901 3.30209 3.32309 3.32398 3.40659 3.36679 3.24583 3.46984 3.42782 3.33492 3.27883 3.54306 3.28243 3.33591 3.345 3.38704 3.46323 3.40173 3.47164 3.4681 3.22068 3.38639
7.7 3.60074 3.4515 3.40559 3.50836 3.40632 3.54397 3.43578 3.52028 3.34549 3.32187 3.37558 3.35073 3.49676 3.38496 3.40707 3.44096 3.51682 3.45274 3.43796 3.59833 3.38052 3.39973 3.37421 3.58446 3.4266 3.49219 3.57636 3.49023 3.3585 3.42402
8 3.69864 3.48853 3.57115 3.5394 3.53909 3.56769 3.50812 3.50043 3.53592 3.43584 3.35863 3.42322 3.4743 3.44056 3.5696 3.44756 3.46648 3.56725 3.47899 3.59397 3.46336 3.41938 3.43482 3.55916 3.51669 3.59244 3.43284 3.53925 3.29645 3.45051
8.3 3.62621 3.44958 3.40302 3.43327 3.47532 3.50138 3.44141 3.43777 3.41434 3.35084 3.44484 3.39759 3.42283 3.39515 3.43697 3.43791 3.42934 3.44148 3.45861 3.42313 3.42423 3.3907 3.4122 3.4597 3.44814 3.43941 3.40347 3.49128 3.37865 3.44554
8.6 3.44457 3.31304 3.25371 3.42431 3.32415 3.30533 3.41832 3.38601 3.3099 3.29394 3.35491 3.35295 3.35705 3.30515 3.33818 3.43143 3.41345 3.42032 3.25257 3.36248 3.3684 3.356 3.3695 3.40167 3.4095 3.29033 3.34438 3.3879 3.29698 3.44386
8.9 3.47236 3.30841 3.40255 3.29794 3.28249 3.39941 3.27816 3.32352 3.24888 3.19817 3.31767 3.23949 3.19435 3.22059 3.25107 3.27602 3.23433 3.3789 3.34065 3.24825 3.13372 3.15664 3.15012 3.2561 3.28067 3.19985 3.2733 3.36942 3.2184 3.24679
9.2 3.37068 3.2352 3.17572 3.21389 3.19854 3.2693 3.17806 3.23082 3.21182 3.11164 3.18954 3.17737 3.19421 3.12039 3.18932 3.24942 3.19045 3.25582 3.20356 3.16126 3.16083 3.20494 3.21073 3.19673 3.26736 3.2151 3.17559 3.28254 3.13835 3.18807
9.5 3.36247 3.14436 3.12121 3.17398 3.16487 3.23915 3.12568 3.1319 3.12876 3.05655 3.11849 3.09174 3.12037 3.07207 3.12547 3.14618 3.11511 3.16465 3.15179 3.1432 3.11992 3.15046 3.12533 3.16462 3.15557 3.07313 3.09444 3.17405 3.08375 3.12913
9.8 3.10368 2.91708 2.88017 2.94118 2.91823 3.01219 2.92755 2.961 2.90942 2.87128 2.90789 2.85763 2.92338 2.87682 2.91313 2.95794 2.90619 2.96283 2.93108 2.90603 2.85465 2.90707 2.89921 2.97547 2.95008 2.92217 2.90291 2.97937 2.85348 2.93832
10.1 2.7791 2.65964 2.6365 2.63641 2.67002 2.71952 2.65427 2.66094 2.67375 2.58636 2.65567 2.6334 2.6382 2.61545 2.66485 2.70334 2.68528 2.67805 2.64255 2.63212 2.62612 2.67309 2.61351 2.6702 2.69328 2.63958 2.66642 2.70781 2.61287 2.61261
10.4 2.54311 2.44817 2.42722 2.45473 2.44632 2.47411 2.44158 2.44714 2.41427 2.36177 2.40691 2.40122 2.42745 2.39394 2.41568 2.44109 2.42228 2.44302 2.42347 2.41369 2.4318 2.41764 2.39847 2.4333 2.43462 2.45474 2.42121 2.46122 2.36386 2.42613
10.7 2.43135 2.28801 2.30629 2.31667 2.29378 2.34488 2.31335 2.25159 2.30543 2.21311 2.28117 2.26649 2.28907 2.25159 2.28841 2.31112 2.28571 2.32242 2.30528 2.29235 2.25527 2.27481 2.27132 2.28623 2.32452 2.30809 2.29256 2.34462 2.24851 2.28905
11 2.30042 2.21897 2.19892 2.20589 2.20482 2.28329 2.17738 2.22372 2.19038 2.14989 2.21145 2.17753 2.18104 2.1804 2.17632 2.20149 2.18879 2.22273 2.22626 2.2181 2.2012 2.19139 2.20251 2.21063 2.2094 2.19398 2.16911 2.26091 2.17173 2.20669
11.3 2.2365 2.13072 2.1337 2.16123 2.15536 2.20742 2.1518 2.18639 2.15619 2.12131 2.16124 2.12855 2.13004 2.11203 2.12939 2.13282 2.15115 2.17116 2.16124 2.14983 2.10502 2.12832 2.10894 2.14736 2.21213 2.15113 2.1148 2.20287 2.12561 2.15973
11.6 2.22479 2.10562 2.09916 2.11404 2.12242 2.15032 2.08704 2.1153 2.0868 2.06494 2.11419 2.09806 2.11203 2.08923 2.05602 2.09804 2.12384 2.12151 2.10126 2.126 2.04936 2.09063 2.10444 2.14706 2.15494 2.06998 2.09342 2.13247 2.05136 2.09463
11.9 2.1448 2.0597 2.06312 2.04894 2.05001 2.09412 2.0706 2.03887 2.06071 2.00386 2.05064 2.06 2.03505 2.00826 1.99728 2.05343 2.04634 2.07108 2.04591 2.05675 2.0248 2.07559 2.02399 2.08287 2.08485 2.06923 2.06525 2.05903 1.99036 2.05137
12.2 2.07447 2.00574 2.01216 2.02236 2.0077 2.05172 2.00148 2.01163 1.99406 1.94804 1.95241 1.97427 1.99146 1.93772 1.98538 2.01282 2.0115 2.01632 1.98902 2.00109 1.99125 1.98536 1.97293 2.02886 2.01158 1.98719 1.9808 2.04923 1.93645 1.99014
12.5 2.04778 1.95206 1.93446 1.96215 1.95015 1.98254 1.9117 1.969 1.91671 1.88764 1.92557 1.90733 1.92496 1.91457 1.88931 1.97083 1.93725 1.93877 1.94735 1.90374 1.89373 1.93054 1.91675 1.94069 1.97417 1.91947 1.88518 1.96367 1.86321 1.94576
12.8 1.97073 1.87975 1.83005 1.86835 1.86159 1.90222 1.85316 1.86913 1.86032 1.82098 1.83044 1.7949 1.81585 1.80379 1.83699 1.8766 1.87222 1.86067 1.87076 1.85247 1.82817 1.8475 1.84363 1.88104 1.8742 1.82829 1.84125 1.88175 1.82367 1.84986
13.1 1.86737 1.78366 1.75911 1.80997 1.81153 1.85766 1.79386 1.794 1.78252 1.76498 1.7782 1.77576 1.80215 1.7405 1.75814 1.78425 1.77526 1.80675 1.79552 1.79541 1.80026 1.76513 1.78928 1.81615 1.80101 1.78368 1.77486 1.82363 1.73661 1.77878
13.4 1.82069 1.75591 1.68637 1.74614 1.71755 1.7733 1.74897 1.73778 1.73682 1.69873 1.72334 1.72541 1.73613 1.68845 1.70643 1.71034 1.72742 1.76688 1.74023 1.73558 1.71146 1.70709 1.71626 1.74048 1.72863 1.73458 1.72247 1.72337 1.69688 1.73488
13.7 1.75833 1.67427 1.67205 1.6592 1.63888 1.71327 1.64748 1.69665 1.69143 1.64795 1.66973 1.66948 1.69469 1.63196 1.68593 1.67946 1.67718 1.69118 1.66442 1.65965 1.66341 1.64805 1.63269 1.68083 1.69772 1.67165 1.66392 1.6984 1.61676 1.66668
14 1.74469 1.65779 1.64283 1.64266 1.63637 1.67567 1.65283 1.65986 1.62628 1.59621 1.62802 1.62998 1.64868 1.59824 1.6315 1.64847 1.62685 1.67359 1.64745 1.6393 1.61079 1.61081 1.62365 1.64611 1.66063 1.61662 1.64224 1.67063 1.59236 1.66806
14.3 1.68047 1.62418 1.5961 1.59781 1.62483 1.65194 1.60943 1.61638 1.60081 1.55529 1.58596 1.58901 1.62014 1.57373 1.56677 1.59409 1.61084 1.61971 1.61054 1.59978 1.59616 1.62495 1.59046 1.6047 1.62887 1.59896 1.59444 1.63766 1.59234 1.61414
14.6 1.65827 1.57934 1.57167 1.57007 1.56619 1.61157 1.56368 1.60263 1.55936 1.51162 1.58634 1.581 1.55651 1.55305 1.55916 1.58175 1.56656 1.58548 1.58031 1.57344 1.5539 1.56621 1.5501 1.57873 1.56657 1.57367 1.56086 1.57692 1.56876 1.552
14.9 1.60989 1.54191 1.5167 1.54429 1.54982 1.56496 1.55077 1.54664 1.53477 1.50808 1.5197 1.50849 1.52781 1.49911 1.51776 1.53627 1.53585 1.53693 1.54071 1.52004 1.5269 1.54138 1.50069 1.54746 1.54897 1.53785 1.5432 1.56984 1.49786 1.54776
15.2 1.56329 1.50893 1.49652 1.50613 1.47883 1.52721 1.49575 1.52747 1.48559 1.48106 1.48613 1.48449 1.4934 1.44848 1.48608 1.50587 1.50245 1.50465 1.47998 1.47754 1.47829 1.47756 1.47948 1.50787 1.52348 1.47031 1.48494 1.50441 1.47623 1.50983
15.5 1.5561 1.4482 1.4452 1.46234 1.46458 1.47486 1.45055 1.46874 1.46369 1.41722 1.46718 1.40883 1.45365 1.41673 1.46225 1.46604 1.46859 1.44173 1.45726 1.43986 1.44659 1.44963 1.43088 1.46883 1.46513 1.46178 1.44867 1.47716 1.42542 1.46333
15.8 1.47251 1.42054 1.41804 1.4534 1.42416 1.45405 1.42854 1.42065 1.43076 1.41182 1.39359 1.39575 1.41471 1.37291 1.41288 1.43764 1.42276 1.40771 1.44071 1.41338 1.40295 1.41782 1.41327 1.44278 1.42505 1.412 1.39739 1.41583 1.38487 1.40744
16.1 1.44577 1.39674 1.36236 1.36658 1.36647 1.41463 1.38364 1.40306 1.40404 1.3663 1.37251 1.37557 1.37282 1.353 1.37752 1.40315 1.36934 1.39566 1.37655 1.3778 1.36266 1.35718 1.37368 1.39852 1.39256 1.37368 1.36112 1.40504 1.3384 1.37537
16.4 1.36578 1.29125 1.30083 1.29376 1.32186 1.31878 1.3093 1.31217 1.30524 1.31021 1.30266 1.33034 1.29458 1.31855 1.27811 1.31166 1.30261 1.3053 1.30787 1.31801 1.28311 1.30325 1.29902 1.29589 1.33321 1.29483 1.29082 1.31801 1.31355 1.2972
16.7 1.36853 1.30485 1.30173 1.30505 1.29711 1.32308 1.31562 1.31928 1.30546 1.28602 1.30698 1.26427 1.29503 1.28264 1.30917 1.31518 1.30637 1.32631 1.31004 1.29123 1.29086 1.28693 1.28486 1.29776 1.29162 1.29897 1.29589 1.34329 1.2679 1.2946
17 1.31268 1.28321 1.27004 1.27769 1.26701 1.29295 1.24819 1.27635 1.25705 1.27248 1.2692 1.2884 1.26618 1.30092 1.24897 1.28959 1.27946 1.28993 1.27023 1.27134 1.2468 1.24323 1.24593 1.28089 1.27315 1.26387 1.2414 1.29206 1.27639 1.24961
17.3 1.33506 1.28123 1.26959 1.29845 1.26137 1.29789 1.30109 1.30029 1.28355 1.2666 1.29242 1.27104 1.26468 1.29002 1.27002 1.29697 1.26164 1.29017 1.2796 1.28174 1.26419 1.28238 1.27375 1.29193 1.31454 1.26969 1.27454 1.29966 1.28129 1.2581
17.6 1.33609 1.27219 1.28424 1.29121 1.27118 1.29262 1.2862 1.31005 1.27696 1.26858 1.28469 1.26862 1.27136 1.26852 1.25321 1.27596 1.28066 1.30874 1.28815 1.30058 1.26939 1.26925 1.29234 1.27359 1.2851 1.29026 1.24784 1.30529 1.25946 1.27653
17.9 1.32927 1.27033 1.25949 1.29581 1.28414 1.28172 1.29229 1.27293 1.27273 1.26562 1.27779 1.26745 1.28729 1.27273 1.25404 1.29175 1.26166 1.28131 1.25394 1.30018 1.25668 1.26687 1.25971 1.26661 1.29807 1.27259 1.2685 1.27518 1.25415 1.27332
18.2 1.32162 1.2559 1.25824 1.26102 1.25898 1.28278 1.28499 1.26411 1.24367 1.24293 1.27011 1.24441 1.26957 1.25674 1.24194 1.26473 1.27299 1.28179 1.26442 1.26208 1.25321 1.26126 1.25575 1.25038 1.27337 1.26376 1.25772 1.26372 1.24817 1.25049
18.5 1.31311 1.25328 1.26296 1.24908 1.26935 1.2639 1.26558 1.28002 1.25208 1.23426 1.28835 1.24231 1.24482 1.26189 1.26747 1.25431 1.26488 1.28109 1.24525 1.27322 1.25376 1.25759 1.2495 1.27549 1.27376 1.2573 1.24133 1.2723 1.25535 1.23977
18.8 1.29012 1.27327 1.26009 1.26617 1.24891 1.26531 1.26646 1.26315 1.21969 1.24862 1.26001 1.24108 1.23553 1.25714 1.22071 1.2533 1.25923 1.26303 1.23946 1.2524 1.2604 1.24872 1.2607 1.25462 1.26799 1.24532 1.24759 1.27342 1.24071 1.24437
19.1 1.28633 1.24529 1.24014 1.24711 1.25535 1.26344 1.25092 1.2719 1.23545 1.2384 1.23713 1.23796 1.23965 1.26032 1.24998 1.24722 1.25535 1.27263 1.25494 1.26165 1.23393 1.25387 1.2445 1.26827 1.26105 1.23592 1.23125 1.26699 1.24572 1.22239
19.4 1.29282 1.2451 1.2425 1.24734 1.27427 1.26912 1.26121 1.24037 1.23967 1.217 1.25328 1.24191 1.26173 1.27292 1.22451 1.25202 1.2528 1.26796 1.23483 1.25506 1.21706 1.25486 1.24298 1.25349 1.25066 1.24286 1.21539 1.24833 1.23654 1.23667
19.7 1.28215 1.25899 1.23279 1.25299 1.2225 1.26174 1.23342 1.24305 1.23743 1.2199 1.22745 1.23766 1.23178 1.24425 1.22334 1.23664 1.23793 1.25898 1.22718 1.2281 1.21836 1.22832 1.25212 1.23368 1.2644 1.24173 1.22925 1.2483 1.24914 1.23556
20 1.26943 1.23835 1.21871 1.25219 1.23705 1.25622 1.24079 1.23665 1.21389 1.19832 1.2284 1.20248 1.22424 1.23896 1.21254 1.25442 1.2212 1.26627 1.22547 1.22131 1.22788 1.22176 1.22179 1.23098 1.25024 1.23128 1.2211 1.23412 1.22413 1.22763
20.3 1.26802 1.23913 1.22959 1.24913 1.22386 1.26192 1.23072 1.23548 1.23119 1.22397 1.25053 1.22388 1.23125 1.22884 1.2129 1.22568 1.24687 1.24655 1.22564 1.21719 1.22134 1.20414 1.22713 1.22063 1.24089 1.22613 1.23177 1.24872 1.2275 1.22472
20.6 1.28024 1.23941 1.22175 1.23341 1.22188 1.24664 1.23314 1.23906 1.20624 1.20993 1.24471 1.211 1.21562 1.22478 1.22461 1.21826 1.22411 1.25303 1.22019 1.24009 1.22567 1.24604 1.23468 1.21759 1.24159 1.22918 1.21793 1.23107 1.22228 1.22115
20.9 1.25496 1.21616 1.22966 1.24316 1.22736 1.23592 1.22304 1.23822 1.21232 1.20468 1.24295 1.21311 1.23685 1.23062 1.21535 1.2245 1.23359 1.24687 1.23444 1.23412 1.21163 1.22154 1.22528 1.225 1.24258 1.21877 1.21944 1.25899 1.20961 1.22016
21.2 1.26532 1.24009 1.22522 1.23958 1.21568 1.25688 1.24167 1.25383 1.21435 1.21324 1.21617 1.20808 1.24178 1.23104 1.23842 1.2219 1.2423 1.24704 1.23573 1.22247 1.22145 1.2371 1.24782 1.21594 1.2359 1.23982 1.22332 1.25626 1.21239 1.23317
21.5 1.25167 1.23071 1.21838 1.23884 1.21261 1.22316 1.22992 1.23705 1.20421 1.20882 1.22083 1.21664 1.2297 1.2138 1.20854 1.23942 1.22489 1.23846 1.2307 1.22402 1.20335 1.21744 1.22775 1.22681 1.23463 1.23612 1.21337 1.2583 1.2297 1.20442
21.8 1.26103 1.22947 1.21805 1.23163 1.22712 1.23383 1.23735 1.23183 1.21276 1.19211 1.21987 1.21782 1.21362 1.21938 1.21451 1.21824 1.22331 1.23971 1.23435 1.23443 1.20254 1.19917 1.21661 1.23128 1.2357 1.21734 1.22293 1.22851 1.20826 1.23183
22.1 1.26029 1.2424 1.2135 1.22556 1.22948 1.24431 1.24035 1.23626 1.2044 1.18668 1.21679 1.22153 1.2233 1.22101 1.21259 1.20715 1.23371 1.22123 1.20664 1.2426 1.21309 1.22929 1.2283 1.22765 1.24086 1.2261 1.2242 1.24004 1.2205 1.21149
22.4 1.25985 1.23358 1.19917 1.22218 1.22055 1.23911 1.22671 1.2369 1.21985 1.22088 1.2355 1.21945 1.22201 1.22598 1.22157 1.22889 1.23564 1.24962 1.22392 1.23465 1.22086 1.21813 1.22745 1.24519 1.22343 1.21459 1.21565 1.2379 1.22164 1.21358
22.7 1.27643 1.24193 1.2056 1.24494 1.20155 1.23825 1.23891 1.22808 1.22104 1.20249 1.20984 1.21311 1.23655 1.2281 1.20728 1.22499 1.21757 1.24438 1.19755 1.24043 1.20091 1.22401 1.22866 1.22199 1.24791 1.21891 1.20844 1.23974 1.21814 1.22781
23 1.28711 1.23444 1.21849 1.25001 1.2112 1.25077 1.226 1.24353 1.22912 1.21714 1.23994 1.21496 1.23481 1.21604 1.22846 1.21236 1.2134 1.24177 1.21542 1.2277 1.22452 1.23668 1.22303 1.23369 1.25526 1.21993 1.22546 1.24049 1.23624 1.22819
23.3 1.25547 1.22521 1.21157 1.24357 1.22102 1.24508 1.23249 1.22961 1.23302 1.21221 1.21915 1.21237 1.2208 1.20872 1.21382 1.24537 1.2226 1.24431 1.22756 1.23703 1.21049 1.22752 1.22742 1.2298 1.24329 1.24437 1.22304 1.24282 1.22372 1.22817
23.6 1.29314 1.22698 1.20954 1.23309 1.22712 1.2435 1.22583 1.23447 1.22874 1.20062 1.23755 1.22017 1.21307 1.23849 1.21849 1.23581 1.22466 1.24267 1.20432 1.21844 1.21792 1.22404 1.23363 1.23701 1.25117 1.23962 1.22039 1.24101 1.22947 1.22931
23.9 1.25412 1.22685 1.21371 1.22664 1.2133 1.21884 1.23528 1.23315 1.22243 1.2104 1.20628 1.20819 1.21686 1.22061 1.21969 1.2173 1.21031 1.23576 1.2218 1.22553 1.21302 1.21652 1.22124 1.2038 1.22685 1.21204 1.20308 1.22459 1.21072 1.20319
24.2 1.26655 1.2225 1.20748 1.19983 1.21362 1.23523 1.21181 1.22785 1.21139 1.20706 1.21915 1.21272 1.22091 1.21223 1.2112 1.20606 1.20826 1.22862 1.21152 1.22443 1.19921 1.20417 1.21986 1.20974 1.22191 1.20991 1.20551 1.22557 1.2086 1.18824
24.5 1.2608 1.22732 1.21206 1.22719 1.20201 1.23897 1.21919 1.21774 1.20789 1.19616 1.20705 1.20694 1.22282 1.21659 1.19313 1.22923 1.20286 1.22497 1.22876 1.22498 1.20089 1.2046 1.21845 1.21978 1.23644 1.20986 1.21221 1.22401 1.1974 1.21977
24.8 1.25648 1.21186 1.20793 1.21439 1.22171 1.22219 1.21662 1.21252 1.20703 1.20723 1.22845 1.18162 1.21485 1.21047 1.19953 1.21566 1.21196 1.20591 1.21725 1.21615 1.20918 1.21286 1.20461 1.21437 1.21649 1.20773 1.20456 1.21193 1.20519 1.20697
25.1 1.23681 1.20214 1.20158 1.1947 1.19967 1.21524 1.21166 1.21373 1.17926 1.18771 1.198 1.21233 1.20019 1.19295 1.20038 1.20995 1.20905 1.21158 1.21051 1.21421 1.17639 1.2077 1.20557 1.20413 1.21291 1.1919 1.20301 1.20517 1.19412 1.17806
25.4 1.233 1.19441 1.18182 1.19512 1.19009 1.21432 1.19835 1.19772 1.18776 1.18582 1.19742 1.17085 1.19118 1.18472 1.1874 1.19256 1.196 1.20112 1.1932 1.20013 1.16818 1.19149 1.19608 1.20796 1.20774 1.17357 1.18899 1.18577 1.18018 1.16829
25.7 1.20914 1.18936 1.17628 1.1872 1.18873 1.19178 1.19064 1.19726 1.17919 1.16544 1.1913 1.17823 1.18879 1.18888 1.1653 1.18679 1.18466 1.196 1.18131 1.18251 1.17345 1.1844 1.16064 1.20576 1.19601 1.18681 1.18317 1.18404 1.17842 1.17916
26 1.21395 1.18303 1.18696 1.18352 1.17583 1.18453 1.17862 1.1784 1.15877 1.16273 1.18629 1.16448 1.16902 1.16362 1.17421 1.16782 1.17421 1.17768 1.17606 1.17232 1.15343 1.16912 1.20274 1.17467 1.18629 1.18144 1.17266 1.1946 1.16855 1.15895
26.3 1.20873 1.16677 1.15389 1.17151 1.16773 1.17465 1.16597 1.16775 1.17732 1.14446 1.17844 1.16157 1.16277 1.15941 1.16702 1.16186 1.16232 1.18343 1.17068 1.16293 1.14929 1.17099 1.18448 1.17353 1.17856 1.15141 1.16136 1.16405 1.16521 1.18217
26.6 1.18577 1.15325 1.15875 1.17572 1.15253 1.18148 1.1632 1.18456 1.17988 1.12317 1.16919 1.14874 1.16221 1.16242 1.16314 1.15321 1.16485 1.17174 1.15391 1.17077 1.16252 1.15172 1.16573 1.1558 1.16698 1.15975 1.165 1.1687 1.14814 1.17079
26.9 1.17364 1.14693 1.15106 1.15126 1.14833 1.16162 1.14721 1.14791 1.15492 1.12104 1.15366 1.15372 1.15109 1.14423 1.14442 1.16032 1.15193 1.16408 1.12953 1.16145 1.1376 1.14416 1.15611 1.13426 1.16782 1.14048 1.14253 1.15455 1.16222 1.14783
27.2 1.16955 1.13154 1.14205 1.14802 1.132 1.14775 1.12979 1.13801 1.12031 1.12976 1.14198 1.14324 1.12749 1.14159 1.11246 1.1341 1.1559 1.13628 1.1348 1.14534 1.11658 1.14809 1.14444 1.13029 1.14412 1.13751 1.13837 1.14878 1.12023 1.13355
27.5 1.15684 1.1274 1.12004 1.13897 1.12173 1.12964 1.12481 1.133 1.09887 1.11846 1.12228 1.11844 1.12229 1.12019 1.11584 1.11411 1.13076 1.13403 1.11154 1.11969 1.11789 1.13899 1.13298 1.12038 1.13551 1.10784 1.12286 1.12483 1.12636 1.10284
27.8 1.14745 1.10549 1.09813 1.11706 1.12537 1.12713 1.11304 1.12156 1.10066 1.08625 1.1099 1.10425 1.11373 1.10955 1.10987 1.0939 1.12173 1.10467 1.09761 1.12056 1.09122 1.10879 1.10753 1.09655 1.1193 1.08929 1.11546 1.11256 1.10964 1.11333
28.1 1.12432 1.10302 1.0974 1.10099 1.09899 1.11142 1.10113 1.10231 1.09842 1.08455 1.10733 1.10663 1.09558 1.09131 1.094 1.09919 1.09501 1.10551 1.10237 1.10059 1.09176 1.10632 1.08926 1.10333 1.11939 1.09525 1.09699 1.10418 1.10114 1.08293
28.4 1.10355 1.09747 1.10549 1.09189 1.08227 1.09586 1.08399 1.08684 1.08507 1.06754 1.07339 1.07763 1.0772 1.07119 1.06715 1.08088 1.07342 1.10619 1.08637 1.09658 1.06659 1.06318 1.09792 1.08295 1.09823 1.0993 1.07606 1.08097 1.07401 1.06872
28.7 1.09093 1.06292 1.0678 1.06935 1.07709 1.07962 1.07592 1.06465 1.05939 1.05857 1.0762 1.0667 1.06474 1.0692 1.05866 1.06467 1.07362 1.07485 1.06743 1.07366 1.05564 1.06843 1.07431 1.06251 1.082 1.07306 1.06544 1.06853 1.06004 1.06316
29 1.08095 1.05253 1.05092 1.05538 1.05729 1.05929 1.0596 1.07499 1.04102 1.04808 1.05212 1.06213 1.05186 1.05901 1.04246 1.06355 1.05721 1.06445 1.04476 1.06177 1.0466 1.05899 1.06601 1.05123 1.06692 1.0612 1.04235 1.06289 1.0395 1.04636
29.3 1.06513 1.04546 1.03694 1.03529 1.01935 1.04862 1.04078 1.04047 1.03777 1.02394 1.04112 1.02892 1.0365 1.02301 1.03948 1.03881 1.03821 1.05786 1.04347 1.03572 1.02532 1.03624 1.02881 1.04263 1.05475 1.04016 1.0326 1.03703 1.04429 1.02999
29.6 1.06202 1.02806 1.02695 1.0159 1.02173 1.03632 1.02636 1.03281 1.02852 1.01536 1.02631 1.00694 1.01479 1.01237 1.009 1.03172 1.01131 1.04254 1.02854 1.02123 0.991947 1.0318 1.01958 1.03535 1.03093 1.01876 1.02212 1.01543 1.02761 1.02689
29.9 1.03112 1.0089 1.00362 0.999586 0.995218 1.00548 1.01025 1.01807 1.01171 0.989964 1.0121 1.00293 0.99068 1.00111 1.00699 1.02455 0.991674 1.01741 1.0044 1.00581 0.998773 1.01249 1.004 1.00826 1.01109 1.00698 1.01249 1.02273 1.0063 1.00542
30.2 1.01323 1.0016 0.998334 0.997104 0.9731 0.987624 0.992485 0.999407 0.995437 0.997042 0.988286 0.987292 0.989207 0.990162 0.980963 0.986368 0.992854 1.00187 0.993057 0.998584 0.990072 0.992735 0.988705 0.994073 0.995108 0.990791 0.989828 1.0073 0.993412 1.00129
30.5 1.00058 0.97612 0.980343 0.977753 0.96106 0.978041 0.984869 0.973507 0.972928 0.954854 0.988577 0.97574 0.979143 0.960234 0.965451 0.97675 0.974795 0.97607 0.962991 0.970837 0.977552 0.970687 0.982207 0.976656 0.996766 0.957393 0.977056 0.975515 0.970526 0.958118
30.8 0.975799 0.944593 0.945979 0.969046 0.955875 0.977425 0.963566 0.964548 0.952697 0.949306 0.976643 0.951811 0.956867 0.945957 0.955668 0.972846 0.963737 0.962059 0.95624 0.955371 0.949014 0.953854 0.963745 0.960781 0.970805 0.963329 0.969443 0.960495 0.95232 0.96552
31.1 0.966877 0.944575 0.94492 0.944815 0.938751 0.954154 0.952404 0.943687 0.935981 0.935016 0.94928 0.933304 0.934703 0.940507 0.938973 0.94097 0.937431 0.958828 0.946925 0.940888 0.940172 0.94492 0.946029 0.946398 0.951178 0.930204 0.93513 0.943635 0.929599 0.942043
31.4 0.949942 0.943874 0.92906 0.928076 0.943431 0.930904 0.930137 0.928191 0.915237 0.913274 0.936253 0.928041 0.928073 0.932201 0.923801 0.934178 0.929777 0.933293 0.916036 0.936722 0.926318 0.922334 0.92703 0.928647 0.938686 0.920236 0.930649 0.943181 0.922985 0.912179
31.7 0.924848 0.918204 0.911634 0.92929 0.904228 0.920422 0.909658 0.930716 0.913284 0.899759 0.914601 0.899929 0.903443 0.910477 0.890124 0.917247 0.918978 0.908909 0.905022 0.924458 0.906869 0.911628 0.902046 0.916236 0.918532 0.907728 0.900118 0.920361 0.903408 0.907589
32 0.921691 0.892618 0.895591 0.90131 0.888985 0.910929 0.892909 0.904687 0.879429 0.889829 0.889746 0.887657 0.886945 0.890018 0.888635 0.904107 0.877392 0.896252 0.889845 0.897776 0.886779 0.885365 0.885348 0.902805 0.894443 0.887654 0.884232 0.902893 0.892484 0.890513
32.3 0.895826 0.883521 0.872842 0.889302 0.875375 0.895476 0.873522 0.882093 0.883737 0.879353 0.879286 0.881378 0.870849 0.876944 0.873346 0.871282 0.871506 0.876008 0.868146 0.880304 0.872916 0.879377 0.885156 0.873263 0.889188 0.880704 0.876148 0.887679 0.87425 0.876745
32.6 0.87506 0.860246 0.864744 0.865622 0.867757 0.856217 0.861096 0.867968 0.857367 0.848186 0.859164 0.853221 0.859906 0.864588 0.861091 0.866125 0.850237 0.867068 0.854212 0.873004 0.856924 0.859601 0.847824 0.866334 0.876806 0.853034 0.844626 0.867261 0.855124 0.857445
32.9 0.858356 0.851426 0.843687 0.842514 0.836654 0.839058 0.852087 0.84711 0.847143 0.833603 0.845477 0.832164 0.847396 0.835619 0.839174 0.845759 0.847411 0.852264 0.854615 0.843121 0.834092 0.838978 0.843904 0.844772 0.842436 0.845416 0.848931 0.829581 0.843271 0.846077
33.2 0.852476 0.83322 0.832585 0.840313 0.832201 0.836566 0.841164 0.845004 0.830551 0.830613 0.835877 0.836849 0.831767 0.831453 0.832758 0.842969 0.829036 0.842025 0.84199 0.841055 0.831294 0.835638 0.837685 0.837845 0.845775 0.830798 0.835108 0.83442 0.833617 0.833714
33.5 0.830273 0.820698 0.815344 0.831504 0.815117 0.816823 0.82654 0.833949 0.823105 0.820368 0.820915 0.822773 0.821817 0.820852 0.815838 0.833134 0.822398 0.82991 0.823749 0.821294 0.820879 0.825104 0.831662 0.828195 0.824733 0.819828 0.82309 0.821915 0.819794 0.822631
33.8 0.830875 0.817206 0.810282 0.811702 0.809746 0.813233 0.814011 0.819937 0.810496 0.807138 0.81423 0.810096 0.814139 0.809901 0.805961 0.816354 0.811282 0.821723 0.815231 0.815403 0.804002 0.821326 0.81128 0.812693 0.819643 0.817331 0.812067 0.81753 0.816481 0.806888
34.1 0.809278 0.79599 0.799109 0.803059 0.801379 0.799796 0.807445 0.811228 0.797055 0.802148 0.811395 0.80108 0.797365 0.804875 0.799564 0.795198 0.795419 0.800795 0.802044 0.7983 0.791895 0.799254 0.797827 0.801287 0.802093 0.791192 0.802198 0.797494 0.802164 0.797806
34.4 0.803014 0.79425 0.782933 0.7935 0.786581 0.793635 0.788713 0.791085 0.788452 0.788867 0.788015 0.793445 0.788835 0.79056 0.788147 0.789732 0.784541 0.794969 0.788858 0.792377 0.783962 0.786483 0.784746 0.7842 0.792377 0.788878 0.792601 0.795223 0.788398 0.787064
34.7 0.786071 0.780279 0.775498 0.771934 0.774348 0.773309 0.773319 0.782404 0.779275 0.772455 0.776667 0.7759 0.775297 0.772754 0.77766 0.779568 0.781085 0.785232 0.771446 0.784007 0.779591 0.780634 0.781441 0.774946 0.783725 0.770655 0.776054 0.781826 0.777224 0.772854
35 0.773728 0.771352 0.762968 0.763182 0.761959 0.770292 0.765384 0.779084 0.765753 0.758684 0.766493 0.769059 0.770499 0.768605 0.763863 0.762915 0.759649 0.768346 0.770931 0.761381 0.761577 0.769715 0.76492 0.761847 0.771496 0.764828 0.768476 0.765843 0.768689 0.764225
35.3 0.764835 0.754037 0.756257 0.753399 0.751926 0.749284 0.751666 0.74839 0.752601 0.748824 0.754212 0.756692 0.754409 0.754459 0.745919 0.750168 0.746768 0.751544 0.750927 0.758214 0.75079 0.755259 0.752983 0.751725 0.75132 0.748026 0.748624 0.746624 0.745603 0.752639
35.6 0.749319 0.742798 0.727211 0.750941 0.737167 0.734273 0.73779 0.745762 0.732018 0.732771 0.741483 0.731184 0.740753 0.741755 0.730837 0.739263 0.734331 0.747702 0.741926 0.740064 0.737317 0.738325 0.745805 0.737382 0.741632 0.730939 0.743351 0.738507 0.734284 0.740169
35.9 0.733452 0.728728 0.7211 0.732909 0.731305 0.728708 0.732663 0.729698 0.725068 0.717668 0.729228 0.725644 0.725828 0.723271 0.729674 0.731255 0.721997 0.729533 0.727343 0.725808 0.718128 0.724932 0.720925 0.724226 0.736147 0.717579 0.726417 0.72614 0.726949 0.724294
36.2 0.726388 0.708547 0.712431 0.718851 0.710842 0.714196 0.714974 0.725507 0.709682 0.72224 0.714215 0.719928 0.712547 0.711783 0.713332 0.718076 0.719857 0.717808 0.709199 0.714638 0.712805 0.714205 0.718949 0.716197 0.723933 0.708536 0.719202 0.715671 0.711606 0.714702
36.5 0.708926 0.701423 0.698935 0.697921 0.695557 0.704911 0.701318 0.704527 0.698426 0.696453 0.70902 0.697936 0.703067 0.703269 0.700018 0.705179 0.708253 0.705762 0.701863 0.701113 0.698579 0.696215 0.699347 0.702212 0.707493 0.701655 0.710013 0.703921 0.698921 0.698655
36.8 0.691224 0.690153 0.683798 0.687141 0.681749 0.682773 0.687329 0.693327 0.682054 0.68708 0.693676 0.687409 0.687814 0.682032 0.68642 0.692876 0.686003 0.695293 0.679895 0.684505 0.681381 0.689104 0.691359 0.689719 0.691975 0.682905 0.689989 0.691884 0.6862 0.686628
37.1 0.683936 0.668067 0.676743 0.6783 0.668141 0.669264 0.677518 0.676522 0.669328 0.67165 0.671945 0.666752 0.672768 0.670192 0.670309 0.679964 0.668388 0.678765 0.671935 0.678003 0.670602 0.676233 0.679988 0.668005 0.681704 0.675763 0.678725 0.673988 0.674452 0.67764
37.4 0.667332 0.658218 0.656988 0.664528 0.660888 0.661856 0.656464 0.666019 0.659895 0.651524 0.659616 0.662074 0.656655 0.660597 0.656165 0.658654 0.655268 0.667065 0.664414 0.668319 0.654754 0.659071 0.658912 0.659664 0.668339 0.657306 0.666216 0.662375 0.666415 0.660496
37.7 0.652787 0.647739 0.647937 0.650862 0.642806 0.649425 0.648419 0.648388 0.648579 0.643238 0.649431 0.651249 0.646935 0.650602 0.647884 0.651674 0.651127 0.648123 0.64742 0.64967 0.64549 0.644515 0.645382 0.641738 0.649525 0.644482 0.652986 0.645877 0.645204 0.648638
38 0.642893 0.626324 0.634234 0.636965 0.627929 0.633311 0.629605 0.641635 0.630561 0.627893 0.631002 0.630304 0.63482 0.630259 0.629963 0.633941 0.622652 0.641522 0.634962 0.633403 0.630175 0.637545 0.630357 0.624348 0.631686 0.628953 0.632055 0.631258 0.632973 0.628103
38.3 0.629235 0.618745 0.621745 0.624296 0.617657 0.616989 0.621543 0.616377 0.618091 0.619511 0.622027 0.627817 0.622125 0.616293 0.616369 0.620001 0.615434 0.620273 0.623639 0.619252 0.619571 0.627451 0.622542 0.623042 0.622151 0.619327 0.616528 0.62221 0.615753 0.616891
38.6 0.618345 0.60536 0.603239 0.615226 0.602843 0.610415 0.605953 0.601082 0.605201 0.603109 0.612923 0.60612 0.603408 0.608125 0.60287 0.609064 0.606348 0.612573 0.608198 0.606235 0.608766 0.601719 0.61023 0.607701 0.612044 0.603465 0.604895 0.605784 0.607268 0.607505
38.9 0.601607 0.596866 0.594062 0.596055 0.593749 0.593086 0.589162 0.60232 0.596936 0.584291 0.600175 0.596156 0.59357 0.59109 0.592753 0.595686 0.597961 0.597948 0.592761 0.591102 0.593016 0.595515 0.599294 0.595233 0.596795 0.589973 0.596883 0.590957 0.594748 0.590382
39.2 0.586318 0.57589 0.577508 0.583436 0.579736 0.579591 0.585838 0.584318 0.581981 0.574653 0.580948 0.584633 0.581139 0.580364 0.577052 0.577168 0.577966 0.579824 0.580602 0.583623 0.577716 0.578406 0.577245 0.5843 0.582352 0.578864 0.582703 0.579984 0.574859 0.584481
39.5 0.570542 0.566696 0.569033 0.56816 0.564151 0.563853 0.571508 0.571543 0.564125 0.560871 0.566557 0.567011 0.564324 0.563757 0.561481 0.569874 0.566259 0.569796 0.558281 0.562056 0.559303 0.564874 0.566291 0.563683 0.571575 0.564103 0.566998 0.565904 0.559608 0.562142
39.8 0.554229 0.549318 0.545813 0.549951 0.549589 0.547532 0.549599 0.550614 0.543996 0.545689 0.54981 0.541616 0.549011 0.548012 0.543391 0.547434 0.54665 0.553657 0.546284 0.548999 0.54422 0.547675 0.544416 0.546695 0.550877 0.545677 0.551714 0.550444 0.546462 0.546223
40.1 0.54185 0.531335 0.528546 0.529669 0.526051 0.530748 0.527815 0.535902 0.526565 0.52507 0.532784 0.52931 0.534005 0.532226 0.525043 0.530206 0.527733 0.534756 0.529058 0.52735 0.523303 0.529641 0.527773 0.529397 0.530077 0.529916 0.529589 0.52892 0.531035 0.527958
40.4 0.520134 0.516145 0.513072 0.512283 0.509554 0.513268 0.513534 0.516169 0.509122 0.511346 0.512009 0.511298 0.507026 0.510128 0.507298 0.508198 0.504706 0.517842 0.510838 0.51271 0.504705 0.51101 0.506169 0.510423 0.50801 0.509506 0.512094 0.514896 0.508713 0.511947
40.7 0.501156 0.492517 0.489286 0.493742 0.486902 0.494853 0.497361 0.495139 0.488484 0.493737 0.492823 0.492835 0.494707 0.488972 0.488201 0.492084 0.493372 0.494666 0.487594 0.494841 0.490595 0.491815 0.493086 0.493089 0.492238 0.491611 0.492681 0.497535 0.492018 0.49229
41 0.479604 0.476089 0.477457 0.478382 0.473423 0.470785 0.474714 0.476413 0.475724 0.476957 0.477392 0.467771 0.477826 0.474364 0.475054 0.480633 0.476133 0.473558 0.471604 0.474178 0.46848 0.473922 0.47411 0.47435 0.475148 0.472935 0.469527 0.468085 0.475159 0.47236
41.3 0.463145 0.461061 0.458876 0.459481 0.456428 0.463571 0.457194 0.459792 0.459689 0.458291 0.460106 0.458749 0.459988 0.458193 0.462795 0.465874 0.458137 0.459818 0.457634 0.457891 0.462988 0.455089 0.45928 0.460348 0.461655 0.457767 0.463364 0.460597 0.454651 0.457439
41.6 0.449891 0.441993 0.451436 0.446565 0.443475 0.446515 0.440691 0.441243 0.441468 0.444419 0.447616 0.446699 0.445855 0.443959 0.444092 0.449702 0.446438 0.447091 0.445527 0.445395 0.447266 0.443 0.445209 0.445165 0.44551 0.440782 0.443799 0.449973 0.439502 0.443564
41.9 0.428972 0.42938 0.433649 0.429915 0.42816 0.429829 0.42892 0.430219 0.428127 0.426556 0.425492 0.427493 0.425975 0.429226 0.428953 0.42687 0.42605 0.425332 0.432906 0.428796 0.426694 0.423267 0.431067 0.429876 0.430164 0.43224 0.425418 0.428528 0.434074 0.426145
42.2 0.409832 0.417487 0.417354 0.412652 0.413713 0.415441 0.413968 0.407671 0.412977 0.408998 0.412326 0.413914 0.411342 0.416016 0.414179 0.419938 0.411951 0.412956 0.410119 0.411269 0.41203 0.413003 0.412268 0.411257 0.408963 0.418301 0.412513 0.404567 0.415129 0.412112
42.5 0.40153 0.39719 0.39575 0.399634 0.397175 0.399414 0.398265 0.401724 0.400688 0.401402 0.397308 0.403044 0.399696 0.399136 0.40031 0.403731 0.402689 0.403807 0.401739 0.405049 0.399157 0.396137 0.397597 0.400772 0.3995 0.398346 0.397793 0.399659 0.397393 0.396644
42.8 0.388309 0.383986 0.384514 0.38816 0.384366 0.384936 0.381878 0.381882 0.378451 0.380856 0.377806 0.380693 0.383049 0.388566 0.385353 0.384863 0.385399 0.387173 0.381891 0.383452 0.387872 0.386967 0.380681 0.385436 0.379686 0.390377 0.379783 0.382878 0.379245 0.384504
43.1 0.374428 0.36878 0.369588 0.372565 0.369907 0.371107 0.371361 0.365582 0.366836 0.36879 0.367026 0.375542 0.369236 0.379233 0.369853 0.372729 0.372193 0.368889 0.372056 0.372455 0.371584 0.374873 0.370687 0.371376 0.373054 0.370545 0.368849 0.374835 0.369228 0.368287
43.4 0.359853 0.352763 0.357735 0.354262 0.35655 0.358178 0.35699 0.355174 0.354488 0.355311 0.358138 0.357313 0.352308 0.363487 0.357764 0.358827 0.357449 0.357182 0.352246 0.355968 0.353583 0.354195 0.35193 0.356525 0.360321 0.35578 0.356532 0.356965 0.353436 0.354858
43.7 0.342854 0.340765 0.349258 0.34571 0.339063 0.342944 0.342423 0.342672 0.348466 0.343163 0.348281 0.344882 0.342678 0.345288 0.34559 0.344719 0.338425 0.33713 0.343464 0.34474 0.345809 0.345717 0.343541 0.344533 0.348254 0.344742 0.34088 0.34184 0.347133 0.345145
44 0.331118 0.331612 0.327021 0.331702 0.330211 0.331315 0.334468 0.330615 0.331078 0.325795 0.328951 0.327363 0.328128 0.329354 0.329452 0.330744 0.32637 0.331988 0.33349 0.328104 0.331614 0.332849 0.331774 0.32366 0.332921 0.325292 0.33153 0.332742 0.32922 0.332324
44.3 0.317627 0.313325 0.314085 0.314897 0.316488 0.313553 0.318614 0.311769 0.313857 0.312249 0.317983 0.314351 0.309818 0.316893 0.315671 0.315534 0.311663 0.314449 0.31827 0.317889 0.317193 0.314539 0.314183 0.314884 0.318487 0.316518 0.315285 0.316263 0.314887 0.316029
44.6 0.303075 0.30507 0.301374 0.304409 0.298449 0.304411 0.303706 0.30181 0.300393 0.30183 0.29924 0.304985 0.302799 0.306964 0.305172 0.306316 0.302279 0.302228 0.299941 0.304394 0.304646 0.303595 0.305939 0.301843 0.305178 0.299509 0.301206 0.298292 0.303633 0.300322
44.9 0.288912 0.288123 0.284568 0.287361 0.28974 0.284403 0.292312 0.286902 0.285263 0.286704 0.289009 0.289105 0.288344 0.287735 0.290679 0.284944 0.289268 0.285204 0.289789 0.292995 0.288085 0.292439 0.28772 0.290012 0.287832 0.291838 0.288864 0.285095 0.286491 0.290686
45.2 0.276671 0.280049 0.276978 0.274483 0.275479 0.276218 0.273565 0.272377 0.275363 0.271471 0.277046 0.271633 0.272318 0.272367 0.274945 0.27596 0.273095 0.277663 0.27633 0.271776 0.272132 0.275819 0.276204 0.274037 0.273716 0.27454 0.276031 0.271074 0.273577 0.275157
45.5 0.264097 0.259914 0.261073 0.25923 0.26598 0.26205 0.264391 0.260389 0.263165 0.262998 0.266937 0.265827 0.266584 0.262699 0.261163 0.264562 0.264555 0.265178 0.260154 0.264415 0.262997 0.264646 0.266784 0.265104 0.263298 0.262187 0.264266 0.265026 0.259789 0.259349
45.8 0.250715 0.25084 0.24976 0.250237 0.251318 0.252703 0.251767 0.250442 0.25269 0.25314 0.247145 0.253359 0.249837 0.255182 0.252373 0.248066 0.252247 0.249674 0.249985 0.249181 0.253787 0.254538 0.246845 0.255065 0.251895 0.249173 0.252284 0.252476 0.247944 0.249947
46.1 0.237255 0.238756 0.237885 0.23876 0.23741 0.24223 0.240656 0.237748 0.233331 0.241575 0.237004 0.240581 0.240541 0.237768 0.242364 0.241846 0.237787 0.23909 0.239867 0.240848 0.240791 0.235653 0.238847 0.240006 0.241355 0.2358 0.239396 0.237187 0.235229 0.245311
46.4 0.228256 0.224179 0.225 0.229031 0.224201 0.225513 0.226749 0.224852 0.223255 0.223782 0.224293 0.227631 0.229433 0.224051 0.227523 0.225959 0.22594 0.22967 0.224266 0.22573 0.225561 0.229956 0.226708 0.226717 0.224915 0.22505 0.222366 0.226977 0.224431 0.227072
46.7 0.211923 0.211579 0.212258 0.213339 0.212582 0.211884 0.208781 0.208612 0.214945 0.210261 0.211765 0.21298 0.211121 0.215062 0.21455 0.212521 0.213257 0.211169 0.210488 0.212227 0.212994 0.219231 0.212002 0.209614 0.208824 0.21502 0.211134 0.211856 0.212211 0.211931
47 0.198391 0.201611 0.199094 0.202177 0.200721 0.200734 0.201314 0.199419 0.197284 0.200042 0.202451 0.201733 0.204229 0.198768 0.204144 0.200393 0.199638 0.203746 0.199795 0.200719 0.198953 0.202994 0.205087 0.201037 0.200629 0.203297 0.201619 0.200161 0.198022 0.198832
47.3 0.19257 0.188514 0.187977 0.188652 0.191162 0.188776 0.18638 0.186574 0.186329 0.186314 0.192791 0.189737 0.1892 0.188397 0.188801 0.189087 0.187605 0.190486 0.189188 0.183576 0.186824 0.189825 0.191633 0.189242 0.189706 0.190244 0.190174 0.189112 0.192103 0.186835
47.6 0.176931 0.178992 0.176143 0.176478 0.17292 0.172753 0.173981 0.175215 0.174241 0.179341 0.173462 0.177632 0.177781 0.175419 0.175629 0.175289 0.175505 0.173188 0.179157 0.173757 0.174958 0.176628 0.175319 0.175951 0.177133 0.17158 0.172642 0.172863 0.173731 0.175467
47.9 0.164171 0.16524 0.16477 0.164798 0.163898 0.163999 0.162149 0.168119 0.166461 0.163711 0.163543 0.160892 0.165402 0.162956 0.164893 0.167796 0.163094 0.16587 0.16178 0.164168 0.161442 0.163278 0.163414 0.163987 0.164507 0.168554 0.161643 0.158107 0.159632 0.159921
48.2 0.150945 0.152818 0.155561 0.150886 0.150939 0.147135 0.15095 0.149428 0.149267 0.148317 0.150503 0.152525 0.154598 0.150582 0.15134 0.152888 0.150519 0.150659 0.149393 0.152977 0.151324 0.151332 0.152121 0.14952 0.148778 0.150679 0.151999 0.149263 0.152757 0.15262
48.5 0.141926 0.13993 0.139523 0.137936 0.142711 0.139962 0.138625 0.139591 0.139085 0.135997 0.140287 0.142448 0.141207 0.139797 0.139324 0.136624 0.139796 0.137702 0.141899 0.139494 0.13701 0.137339 0.139207 0.142795 0.138859 0.140735 0.13825 0.139913 0.13848 0.137267
48.7 0.129069 0.131141 0.136427 0.131336 0.13352 0.129679 0.131876 0.133032 0.131454 0.135644 0.13339 0.131863 0.130783 0.129505 0.13505 0.134906 0.13444 0.133894 0.130797 0.130667 0.131856 0.130352 0.131983 0.131908 0.133345 0.129891 0.128444 0.132538 0.133449 0.130212